ExperimentName;Subject;Session;Clock.Information;DataFile.Basename;debriefing_1;debriefing_2;debriefing_3;Display.RefreshRate;ExperimentVersion;Group;InstrucAllg.DEVICE;Intro.DEVICE;Intro2.DEVICE;RandomSeed;RuntimeCapabilities;RuntimeVersion;RuntimeVersionExpected;SessionDate;SessionStartDateTimeUtc;SessionTime;StudioVersion;Counterbalance;CounterbalanceList;CounterbalanceList.Cycle;CounterbalanceList.Sample;InstrucSwitch.DEVICE;Intro4.DEVICE;Procedure[Counterbalance];Running[Counterbalance];Block;FdbSwitches.DEVICE;InstrucFlanker.DEVICE;InstrucSimon.DEVICE;MixedList;MixedList.Cycle;MixedList.Sample;PostList;PostList.Cycle;PostList.Sample;PreList;PreList.Cycle;PreList.Sample;Procedure[Block];Running[Block];Trial;BlockNr;ITIDuration;Procedure[Trial];Running[Trial];SwitchList;SwitchList.Cycle;SwitchList.Sample;SwitchTask.DEVICE;SwitchTask.RESP;SwitchTask.RT;SwitchTask.RTTime;TASK;TrainListFlankerPre20;TrainListFlankerPre20.Cycle;TrainListFlankerPre20.Sample;TrainListFlankerPre80;TrainListFlankerPre80.Cycle;TrainListFlankerPre80.Sample;TrainListSimonPre20;TrainListSimonPre20.Cycle;TrainListSimonPre20.Sample;TrainListSimonPre80;TrainListSimonPre80.Cycle;TrainListSimonPre80.Sample;LogLevel5;BlockTrial;Colour;COMP;CorrectResp;errormsg;Flanker;FlankerList20;FlankerList20.Cycle;FlankerList20.Sample;FlankerList50;FlankerList50.Cycle;FlankerList50.Sample;FlankerList80;FlankerList80.Cycle;FlankerList80.Sample;POS;Procedure[LogLevel5];Running[LogLevel5];Side;SimonList20;SimonList20.Cycle;SimonList20.Sample;SimonList50;SimonList50.Cycle;SimonList50.Sample;SimonList80;SimonList80.Cycle;SimonList80.Sample;Target;Target.ACC;Target.CRESP;Target.DEVICE;Target.RESP;Target.RT;TrialNr
SeminarExperimentWS2324;306;1;"<?xml version=""1.0""?>\n<Clock xmlns:dt=""urn:schemas-microsoft-com:datatypes""><Description dt:dt=""string"">E-Prime Primary Realtime Clock</Description><StartTime><Timestamp dt:dt=""int"">0</Timestamp><DateUtc dt:dt=""string"">2023-10-26T19:56:39Z</DateUtc></StartTime><FrequencyChanges><FrequencyChange><Frequency dt:dt=""r8"">10000000</Frequency><Timestamp dt:dt=""r8"">7094437297712</Timestamp><Current dt:dt=""r8"">0</Current><DateUtc dt:dt=""string"">2023-10-26T19:56:39Z</DateUtc></FrequencyChange></FrequencyChanges></Clock>\n";SeminarExperimentWS2324-0306-1;;;;60.033;1.0.0.48;1;Keyboard;Keyboard;Keyboard;-845970411;Full;3.0.3.214;3.0.3.214;10-26-2023;26.10.2023 19:56;21:56:40;3.0.3.214;1;2;2;1;Keyboard;Keyboard;CounterBalanceProc;CounterbalanceList;1;;Keyboard;;;;;;;;1;2;1;TrainProcFlank;PreList;1;1;;TrainFlankerProc20;TrainListFlankerPre20;;;;;;;;;1;1;1;;;;;;;;;;1;1;white;1;{BACKSLASH};;S;2;1;1;;;;;;;;TrialProc;FlankerList20;50%;;;;;;;;;;S;1;{BACKSLASH};Keyboard;{BACKSLASH};632;1
SeminarExperimentWS2324;306;1;"<?xml version=""1.0""?>\n<Clock xmlns:dt=""urn:schemas-microsoft-com:datatypes""><Description dt:dt=""string"">E-Prime Primary Realtime Clock</Description><StartTime><Timestamp dt:dt=""int"">0</Timestamp><DateUtc dt:dt=""string"">2023-10-26T19:56:39Z</DateUtc></StartTime><FrequencyChanges><FrequencyChange><Frequency dt:dt=""r8"">10000000</Frequency><Timestamp dt:dt=""r8"">7094437297712</Timestamp><Current dt:dt=""r8"">0</Current><DateUtc dt:dt=""string"">2023-10-26T19:56:39Z</DateUtc></FrequencyChange></FrequencyChanges></Clock>\n";SeminarExperimentWS2324-0306-1;;;;60.033;1.0.0.48;1;Keyboard;Keyboard;Keyboard;-845970411;Full;3.0.3.214;3.0.3.214;10-26-2023;26.10.2023 19:56;21:56:40;3.0.3.214;1;2;2;1;Keyboard;Keyboard;CounterBalanceProc;CounterbalanceList;1;;Keyboard;;;;;;;;1;2;1;TrainProcFlank;PreList;1;1;;TrainFlankerProc20;TrainListFlankerPre20;;;;;;;;;1;1;1;;;;;;;;;;2;2;white;1;a;;H;1;1;2;;;;;;;;TrialProc;FlankerList20;50%;;;;;;;;;;H;1;a;Keyboard;a;480;2
SeminarExperimentWS2324;306;1;"<?xml version=""1.0""?>\n<Clock xmlns:dt=""urn:schemas-microsoft-com:datatypes""><Description dt:dt=""string"">E-Prime Primary Realtime Clock</Description><StartTime><Timestamp dt:dt=""int"">0</Timestamp><DateUtc dt:dt=""string"">2023-10-26T19:56:39Z</DateUtc></StartTime><FrequencyChanges><FrequencyChange><Frequency dt:dt=""r8"">10000000</Frequency><Timestamp dt:dt=""r8"">7094437297712</Timestamp><Current dt:dt=""r8"">0</Current><DateUtc dt:dt=""string"">2023-10-26T19:56:39Z</DateUtc></FrequencyChange></FrequencyChanges></Clock>\n";SeminarExperimentWS2324-0306-1;;;;60.033;1.0.0.48;1;Keyboard;Keyboard;Keyboard;-845970411;Full;3.0.3.214;3.0.3.214;10-26-2023;26.10.2023 19:56;21:56:40;3.0.3.214;1;2;2;1;Keyboard;Keyboard;CounterBalanceProc;CounterbalanceList;1;;Keyboard;;;;;;;;1;2;1;TrainProcFlank;PreList;1;1;;TrainFlankerProc20;TrainListFlankerPre20;;;;;;;;;1;1;1;;;;;;;;;;3;3;white;-1;{BACKSLASH};;H;10;1;3;;;;;;;;TrialProc;FlankerList20;50%;;;;;;;;;;S;1;{BACKSLASH};Keyboard;{BACKSLASH};550;3
SeminarExperimentWS2324;306;1;"<?xml version=""1.0""?>\n<Clock xmlns:dt=""urn:schemas-microsoft-com:datatypes""><Description dt:dt=""string"">E-Prime Primary Realtime Clock</Description><StartTime><Timestamp dt:dt=""int"">0</Timestamp><DateUtc dt:dt=""string"">2023-10-26T19:56:39Z</DateUtc></StartTime><FrequencyChanges><FrequencyChange><Frequency dt:dt=""r8"">10000000</Frequency><Timestamp dt:dt=""r8"">7094437297712</Timestamp><Current dt:dt=""r8"">0</Current><DateUtc dt:dt=""string"">2023-10-26T19:56:39Z</DateUtc></FrequencyChange></FrequencyChanges></Clock>\n";SeminarExperimentWS2324-0306-1;;;;60.033;1.0.0.48;1;Keyboard;Keyboard;Keyboard;-845970411;Full;3.0.3.214;3.0.3.214;10-26-2023;26.10.2023 19:56;21:56:40;3.0.3.214;1;2;2;1;Keyboard;Keyboard;CounterBalanceProc;CounterbalanceList;1;;Keyboard;;;;;;;;1;2;1;TrainProcFlank;PreList;1;1;;TrainFlankerProc20;TrainListFlankerPre20;;;;;;;;;1;1;1;;;;;;;;;;4;4;white;1;{BACKSLASH};Fehler!;S;6;1;4;;;;;;;;TrialProc;FlankerList20;50%;;;;;;;;;;S;0;{BACKSLASH};Keyboard;a;438;4
SeminarExperimentWS2324;306;1;"<?xml version=""1.0""?>\n<Clock xmlns:dt=""urn:schemas-microsoft-com:datatypes""><Description dt:dt=""string"">E-Prime Primary Realtime Clock</Description><StartTime><Timestamp dt:dt=""int"">0</Timestamp><DateUtc dt:dt=""string"">2023-10-26T19:56:39Z</DateUtc></StartTime><FrequencyChanges><FrequencyChange><Frequency dt:dt=""r8"">10000000</Frequency><Timestamp dt:dt=""r8"">7094437297712</Timestamp><Current dt:dt=""r8"">0</Current><DateUtc dt:dt=""string"">2023-10-26T19:56:39Z</DateUtc></FrequencyChange></FrequencyChanges></Clock>\n";SeminarExperimentWS2324-0306-1;;;;60.033;1.0.0.48;1;Keyboard;Keyboard;Keyboard;-845970411;Full;3.0.3.214;3.0.3.214;10-26-2023;26.10.2023 19:56;21:56:40;3.0.3.214;1;2;2;1;Keyboard;Keyboard;CounterBalanceProc;CounterbalanceList;1;;Keyboard;;;;;;;;1;2;1;TrainProcFlank;PreList;1;1;;TrainFlankerProc20;TrainListFlankerPre20;;;;;;;;;1;1;1;;;;;;;;;;5;5;white;-1;a;;S;9;1;5;;;;;;;;TrialProc;FlankerList20;50%;;;;;;;;;;H;1;a;Keyboard;a;753;5
SeminarExperimentWS2324;306;1;"<?xml version=""1.0""?>\n<Clock xmlns:dt=""urn:schemas-microsoft-com:datatypes""><Description dt:dt=""string"">E-Prime Primary Realtime Clock</Description><StartTime><Timestamp dt:dt=""int"">0</Timestamp><DateUtc dt:dt=""string"">2023-10-26T19:56:39Z</DateUtc></StartTime><FrequencyChanges><FrequencyChange><Frequency dt:dt=""r8"">10000000</Frequency><Timestamp dt:dt=""r8"">7094437297712</Timestamp><Current dt:dt=""r8"">0</Current><DateUtc dt:dt=""string"">2023-10-26T19:56:39Z</DateUtc></FrequencyChange></FrequencyChanges></Clock>\n";SeminarExperimentWS2324-0306-1;;;;60.033;1.0.0.48;1;Keyboard;Keyboard;Keyboard;-845970411;Full;3.0.3.214;3.0.3.214;10-26-2023;26.10.2023 19:56;21:56:40;3.0.3.214;1;2;2;1;Keyboard;Keyboard;CounterBalanceProc;CounterbalanceList;1;;Keyboard;;;;;;;;1;2;1;TrainProcFlank;PreList;1;1;;TrainFlankerProc20;TrainListFlankerPre20;;;;;;;;;1;1;1;;;;;;;;;;6;6;white;1;{BACKSLASH};;S;4;1;6;;;;;;;;TrialProc;FlankerList20;50%;;;;;;;;;;S;1;{BACKSLASH};Keyboard;{BACKSLASH};375;6
SeminarExperimentWS2324;306;1;"<?xml version=""1.0""?>\n<Clock xmlns:dt=""urn:schemas-microsoft-com:datatypes""><Description dt:dt=""string"">E-Prime Primary Realtime Clock</Description><StartTime><Timestamp dt:dt=""int"">0</Timestamp><DateUtc dt:dt=""string"">2023-10-26T19:56:39Z</DateUtc></StartTime><FrequencyChanges><FrequencyChange><Frequency dt:dt=""r8"">10000000</Frequency><Timestamp dt:dt=""r8"">7094437297712</Timestamp><Current dt:dt=""r8"">0</Current><DateUtc dt:dt=""string"">2023-10-26T19:56:39Z</DateUtc></FrequencyChange></FrequencyChanges></Clock>\n";SeminarExperimentWS2324-0306-1;;;;60.033;1.0.0.48;1;Keyboard;Keyboard;Keyboard;-845970411;Full;3.0.3.214;3.0.3.214;10-26-2023;26.10.2023 19:56;21:56:40;3.0.3.214;1;2;2;1;Keyboard;Keyboard;CounterBalanceProc;CounterbalanceList;1;;Keyboard;;;;;;;;1;2;1;TrainProcFlank;PreList;1;1;;TrainFlankerProc20;TrainListFlankerPre20;;;;;;;;;1;1;1;;;;;;;;;;7;7;white;1;a;;H;7;1;7;;;;;;;;TrialProc;FlankerList20;50%;;;;;;;;;;H;1;a;Keyboard;a;449;7
SeminarExperimentWS2324;306;1;"<?xml version=""1.0""?>\n<Clock xmlns:dt=""urn:schemas-microsoft-com:datatypes""><Description dt:dt=""string"">E-Prime Primary Realtime Clock</Description><StartTime><Timestamp dt:dt=""int"">0</Timestamp><DateUtc dt:dt=""string"">2023-10-26T19:56:39Z</DateUtc></StartTime><FrequencyChanges><FrequencyChange><Frequency dt:dt=""r8"">10000000</Frequency><Timestamp dt:dt=""r8"">7094437297712</Timestamp><Current dt:dt=""r8"">0</Current><DateUtc dt:dt=""string"">2023-10-26T19:56:39Z</DateUtc></FrequencyChange></FrequencyChanges></Clock>\n";SeminarExperimentWS2324-0306-1;;;;60.033;1.0.0.48;1;Keyboard;Keyboard;Keyboard;-845970411;Full;3.0.3.214;3.0.3.214;10-26-2023;26.10.2023 19:56;21:56:40;3.0.3.214;1;2;2;1;Keyboard;Keyboard;CounterBalanceProc;CounterbalanceList;1;;Keyboard;;;;;;;;1;2;1;TrainProcFlank;PreList;1;1;;TrainFlankerProc20;TrainListFlankerPre20;;;;;;;;;1;1;1;;;;;;;;;;8;8;white;1;a;;H;5;1;8;;;;;;;;TrialProc;FlankerList20;50%;;;;;;;;;;H;1;a;Keyboard;a;416;8
SeminarExperimentWS2324;306;1;"<?xml version=""1.0""?>\n<Clock xmlns:dt=""urn:schemas-microsoft-com:datatypes""><Description dt:dt=""string"">E-Prime Primary Realtime Clock</Description><StartTime><Timestamp dt:dt=""int"">0</Timestamp><DateUtc dt:dt=""string"">2023-10-26T19:56:39Z</DateUtc></StartTime><FrequencyChanges><FrequencyChange><Frequency dt:dt=""r8"">10000000</Frequency><Timestamp dt:dt=""r8"">7094437297712</Timestamp><Current dt:dt=""r8"">0</Current><DateUtc dt:dt=""string"">2023-10-26T19:56:39Z</DateUtc></FrequencyChange></FrequencyChanges></Clock>\n";SeminarExperimentWS2324-0306-1;;;;60.033;1.0.0.48;1;Keyboard;Keyboard;Keyboard;-845970411;Full;3.0.3.214;3.0.3.214;10-26-2023;26.10.2023 19:56;21:56:40;3.0.3.214;1;2;2;1;Keyboard;Keyboard;CounterBalanceProc;CounterbalanceList;1;;Keyboard;;;;;;;;1;2;1;TrainProcFlank;PreList;1;1;;TrainFlankerProc20;TrainListFlankerPre20;;;;;;;;;1;1;1;;;;;;;;;;9;9;white;1;{BACKSLASH};;S;8;1;9;;;;;;;;TrialProc;FlankerList20;50%;;;;;;;;;;S;1;{BACKSLASH};Keyboard;{BACKSLASH};444;9
SeminarExperimentWS2324;306;1;"<?xml version=""1.0""?>\n<Clock xmlns:dt=""urn:schemas-microsoft-com:datatypes""><Description dt:dt=""string"">E-Prime Primary Realtime Clock</Description><StartTime><Timestamp dt:dt=""int"">0</Timestamp><DateUtc dt:dt=""string"">2023-10-26T19:56:39Z</DateUtc></StartTime><FrequencyChanges><FrequencyChange><Frequency dt:dt=""r8"">10000000</Frequency><Timestamp dt:dt=""r8"">7094437297712</Timestamp><Current dt:dt=""r8"">0</Current><DateUtc dt:dt=""string"">2023-10-26T19:56:39Z</DateUtc></FrequencyChange></FrequencyChanges></Clock>\n";SeminarExperimentWS2324-0306-1;;;;60.033;1.0.0.48;1;Keyboard;Keyboard;Keyboard;-845970411;Full;3.0.3.214;3.0.3.214;10-26-2023;26.10.2023 19:56;21:56:40;3.0.3.214;1;2;2;1;Keyboard;Keyboard;CounterBalanceProc;CounterbalanceList;1;;Keyboard;;;;;;;;1;2;1;TrainProcFlank;PreList;1;1;;TrainFlankerProc20;TrainListFlankerPre20;;;;;;;;;1;1;1;;;;;;;;;;10;10;white;1;a;;H;3;1;10;;;;;;;;TrialProc;FlankerList20;50%;;;;;;;;;;H;1;a;Keyboard;a;482;10
SeminarExperimentWS2324;306;1;"<?xml version=""1.0""?>\n<Clock xmlns:dt=""urn:schemas-microsoft-com:datatypes""><Description dt:dt=""string"">E-Prime Primary Realtime Clock</Description><StartTime><Timestamp dt:dt=""int"">0</Timestamp><DateUtc dt:dt=""string"">2023-10-26T19:56:39Z</DateUtc></StartTime><FrequencyChanges><FrequencyChange><Frequency dt:dt=""r8"">10000000</Frequency><Timestamp dt:dt=""r8"">7094437297712</Timestamp><Current dt:dt=""r8"">0</Current><DateUtc dt:dt=""string"">2023-10-26T19:56:39Z</DateUtc></FrequencyChange></FrequencyChanges></Clock>\n";SeminarExperimentWS2324-0306-1;;;;60.033;1.0.0.48;1;Keyboard;Keyboard;Keyboard;-845970411;Full;3.0.3.214;3.0.3.214;10-26-2023;26.10.2023 19:56;21:56:40;3.0.3.214;1;2;2;1;Keyboard;Keyboard;CounterBalanceProc;CounterbalanceList;1;;Keyboard;;;;;;;;1;2;1;TrainProcFlank;PreList;2;2;;TrainFlankerProc20;TrainListFlankerPre20;;;;;;;;;1;1;2;;;;;;;;;;1;1;white;1;{BACKSLASH};;S;8;2;11;;;;;;;;TrialProc;FlankerList20;50%;;;;;;;;;;S;1;{BACKSLASH};Keyboard;{BACKSLASH};341;11
SeminarExperimentWS2324;306;1;"<?xml version=""1.0""?>\n<Clock xmlns:dt=""urn:schemas-microsoft-com:datatypes""><Description dt:dt=""string"">E-Prime Primary Realtime Clock</Description><StartTime><Timestamp dt:dt=""int"">0</Timestamp><DateUtc dt:dt=""string"">2023-10-26T19:56:39Z</DateUtc></StartTime><FrequencyChanges><FrequencyChange><Frequency dt:dt=""r8"">10000000</Frequency><Timestamp dt:dt=""r8"">7094437297712</Timestamp><Current dt:dt=""r8"">0</Current><DateUtc dt:dt=""string"">2023-10-26T19:56:39Z</DateUtc></FrequencyChange></FrequencyChanges></Clock>\n";SeminarExperimentWS2324-0306-1;;;;60.033;1.0.0.48;1;Keyboard;Keyboard;Keyboard;-845970411;Full;3.0.3.214;3.0.3.214;10-26-2023;26.10.2023 19:56;21:56:40;3.0.3.214;1;2;2;1;Keyboard;Keyboard;CounterBalanceProc;CounterbalanceList;1;;Keyboard;;;;;;;;1;2;1;TrainProcFlank;PreList;2;2;;TrainFlankerProc20;TrainListFlankerPre20;;;;;;;;;1;1;2;;;;;;;;;;2;2;white;1;a;;H;7;2;12;;;;;;;;TrialProc;FlankerList20;50%;;;;;;;;;;H;1;a;Keyboard;a;384;12
SeminarExperimentWS2324;306;1;"<?xml version=""1.0""?>\n<Clock xmlns:dt=""urn:schemas-microsoft-com:datatypes""><Description dt:dt=""string"">E-Prime Primary Realtime Clock</Description><StartTime><Timestamp dt:dt=""int"">0</Timestamp><DateUtc dt:dt=""string"">2023-10-26T19:56:39Z</DateUtc></StartTime><FrequencyChanges><FrequencyChange><Frequency dt:dt=""r8"">10000000</Frequency><Timestamp dt:dt=""r8"">7094437297712</Timestamp><Current dt:dt=""r8"">0</Current><DateUtc dt:dt=""string"">2023-10-26T19:56:39Z</DateUtc></FrequencyChange></FrequencyChanges></Clock>\n";SeminarExperimentWS2324-0306-1;;;;60.033;1.0.0.48;1;Keyboard;Keyboard;Keyboard;-845970411;Full;3.0.3.214;3.0.3.214;10-26-2023;26.10.2023 19:56;21:56:40;3.0.3.214;1;2;2;1;Keyboard;Keyboard;CounterBalanceProc;CounterbalanceList;1;;Keyboard;;;;;;;;1;2;1;TrainProcFlank;PreList;2;2;;TrainFlankerProc20;TrainListFlankerPre20;;;;;;;;;1;1;2;;;;;;;;;;3;3;white;1;{BACKSLASH};;S;6;2;13;;;;;;;;TrialProc;FlankerList20;50%;;;;;;;;;;S;1;{BACKSLASH};Keyboard;{BACKSLASH};489;13
SeminarExperimentWS2324;306;1;"<?xml version=""1.0""?>\n<Clock xmlns:dt=""urn:schemas-microsoft-com:datatypes""><Description dt:dt=""string"">E-Prime Primary Realtime Clock</Description><StartTime><Timestamp dt:dt=""int"">0</Timestamp><DateUtc dt:dt=""string"">2023-10-26T19:56:39Z</DateUtc></StartTime><FrequencyChanges><FrequencyChange><Frequency dt:dt=""r8"">10000000</Frequency><Timestamp dt:dt=""r8"">7094437297712</Timestamp><Current dt:dt=""r8"">0</Current><DateUtc dt:dt=""string"">2023-10-26T19:56:39Z</DateUtc></FrequencyChange></FrequencyChanges></Clock>\n";SeminarExperimentWS2324-0306-1;;;;60.033;1.0.0.48;1;Keyboard;Keyboard;Keyboard;-845970411;Full;3.0.3.214;3.0.3.214;10-26-2023;26.10.2023 19:56;21:56:40;3.0.3.214;1;2;2;1;Keyboard;Keyboard;CounterBalanceProc;CounterbalanceList;1;;Keyboard;;;;;;;;1;2;1;TrainProcFlank;PreList;2;2;;TrainFlankerProc20;TrainListFlankerPre20;;;;;;;;;1;1;2;;;;;;;;;;4;4;white;1;a;;H;1;2;14;;;;;;;;TrialProc;FlankerList20;50%;;;;;;;;;;H;1;a;Keyboard;a;372;14
SeminarExperimentWS2324;306;1;"<?xml version=""1.0""?>\n<Clock xmlns:dt=""urn:schemas-microsoft-com:datatypes""><Description dt:dt=""string"">E-Prime Primary Realtime Clock</Description><StartTime><Timestamp dt:dt=""int"">0</Timestamp><DateUtc dt:dt=""string"">2023-10-26T19:56:39Z</DateUtc></StartTime><FrequencyChanges><FrequencyChange><Frequency dt:dt=""r8"">10000000</Frequency><Timestamp dt:dt=""r8"">7094437297712</Timestamp><Current dt:dt=""r8"">0</Current><DateUtc dt:dt=""string"">2023-10-26T19:56:39Z</DateUtc></FrequencyChange></FrequencyChanges></Clock>\n";SeminarExperimentWS2324-0306-1;;;;60.033;1.0.0.48;1;Keyboard;Keyboard;Keyboard;-845970411;Full;3.0.3.214;3.0.3.214;10-26-2023;26.10.2023 19:56;21:56:40;3.0.3.214;1;2;2;1;Keyboard;Keyboard;CounterBalanceProc;CounterbalanceList;1;;Keyboard;;;;;;;;1;2;1;TrainProcFlank;PreList;2;2;;TrainFlankerProc20;TrainListFlankerPre20;;;;;;;;;1;1;2;;;;;;;;;;5;5;white;1;a;;H;3;2;15;;;;;;;;TrialProc;FlankerList20;50%;;;;;;;;;;H;1;a;Keyboard;a;401;15
SeminarExperimentWS2324;306;1;"<?xml version=""1.0""?>\n<Clock xmlns:dt=""urn:schemas-microsoft-com:datatypes""><Description dt:dt=""string"">E-Prime Primary Realtime Clock</Description><StartTime><Timestamp dt:dt=""int"">0</Timestamp><DateUtc dt:dt=""string"">2023-10-26T19:56:39Z</DateUtc></StartTime><FrequencyChanges><FrequencyChange><Frequency dt:dt=""r8"">10000000</Frequency><Timestamp dt:dt=""r8"">7094437297712</Timestamp><Current dt:dt=""r8"">0</Current><DateUtc dt:dt=""string"">2023-10-26T19:56:39Z</DateUtc></FrequencyChange></FrequencyChanges></Clock>\n";SeminarExperimentWS2324-0306-1;;;;60.033;1.0.0.48;1;Keyboard;Keyboard;Keyboard;-845970411;Full;3.0.3.214;3.0.3.214;10-26-2023;26.10.2023 19:56;21:56:40;3.0.3.214;1;2;2;1;Keyboard;Keyboard;CounterBalanceProc;CounterbalanceList;1;;Keyboard;;;;;;;;1;2;1;TrainProcFlank;PreList;2;2;;TrainFlankerProc20;TrainListFlankerPre20;;;;;;;;;1;1;2;;;;;;;;;;6;6;white;-1;{BACKSLASH};Fehler!;H;10;2;16;;;;;;;;TrialProc;FlankerList20;50%;;;;;;;;;;S;0;{BACKSLASH};Keyboard;a;464;16
SeminarExperimentWS2324;306;1;"<?xml version=""1.0""?>\n<Clock xmlns:dt=""urn:schemas-microsoft-com:datatypes""><Description dt:dt=""string"">E-Prime Primary Realtime Clock</Description><StartTime><Timestamp dt:dt=""int"">0</Timestamp><DateUtc dt:dt=""string"">2023-10-26T19:56:39Z</DateUtc></StartTime><FrequencyChanges><FrequencyChange><Frequency dt:dt=""r8"">10000000</Frequency><Timestamp dt:dt=""r8"">7094437297712</Timestamp><Current dt:dt=""r8"">0</Current><DateUtc dt:dt=""string"">2023-10-26T19:56:39Z</DateUtc></FrequencyChange></FrequencyChanges></Clock>\n";SeminarExperimentWS2324-0306-1;;;;60.033;1.0.0.48;1;Keyboard;Keyboard;Keyboard;-845970411;Full;3.0.3.214;3.0.3.214;10-26-2023;26.10.2023 19:56;21:56:40;3.0.3.214;1;2;2;1;Keyboard;Keyboard;CounterBalanceProc;CounterbalanceList;1;;Keyboard;;;;;;;;1;2;1;TrainProcFlank;PreList;2;2;;TrainFlankerProc20;TrainListFlankerPre20;;;;;;;;;1;1;2;;;;;;;;;;7;7;white;1;{BACKSLASH};;S;2;2;17;;;;;;;;TrialProc;FlankerList20;50%;;;;;;;;;;S;1;{BACKSLASH};Keyboard;{BACKSLASH};656;17
SeminarExperimentWS2324;306;1;"<?xml version=""1.0""?>\n<Clock xmlns:dt=""urn:schemas-microsoft-com:datatypes""><Description dt:dt=""string"">E-Prime Primary Realtime Clock</Description><StartTime><Timestamp dt:dt=""int"">0</Timestamp><DateUtc dt:dt=""string"">2023-10-26T19:56:39Z</DateUtc></StartTime><FrequencyChanges><FrequencyChange><Frequency dt:dt=""r8"">10000000</Frequency><Timestamp dt:dt=""r8"">7094437297712</Timestamp><Current dt:dt=""r8"">0</Current><DateUtc dt:dt=""string"">2023-10-26T19:56:39Z</DateUtc></FrequencyChange></FrequencyChanges></Clock>\n";SeminarExperimentWS2324-0306-1;;;;60.033;1.0.0.48;1;Keyboard;Keyboard;Keyboard;-845970411;Full;3.0.3.214;3.0.3.214;10-26-2023;26.10.2023 19:56;21:56:40;3.0.3.214;1;2;2;1;Keyboard;Keyboard;CounterBalanceProc;CounterbalanceList;1;;Keyboard;;;;;;;;1;2;1;TrainProcFlank;PreList;2;2;;TrainFlankerProc20;TrainListFlankerPre20;;;;;;;;;1;1;2;;;;;;;;;;8;8;white;-1;a;;S;9;2;18;;;;;;;;TrialProc;FlankerList20;50%;;;;;;;;;;H;1;a;Keyboard;a;441;18
SeminarExperimentWS2324;306;1;"<?xml version=""1.0""?>\n<Clock xmlns:dt=""urn:schemas-microsoft-com:datatypes""><Description dt:dt=""string"">E-Prime Primary Realtime Clock</Description><StartTime><Timestamp dt:dt=""int"">0</Timestamp><DateUtc dt:dt=""string"">2023-10-26T19:56:39Z</DateUtc></StartTime><FrequencyChanges><FrequencyChange><Frequency dt:dt=""r8"">10000000</Frequency><Timestamp dt:dt=""r8"">7094437297712</Timestamp><Current dt:dt=""r8"">0</Current><DateUtc dt:dt=""string"">2023-10-26T19:56:39Z</DateUtc></FrequencyChange></FrequencyChanges></Clock>\n";SeminarExperimentWS2324-0306-1;;;;60.033;1.0.0.48;1;Keyboard;Keyboard;Keyboard;-845970411;Full;3.0.3.214;3.0.3.214;10-26-2023;26.10.2023 19:56;21:56:40;3.0.3.214;1;2;2;1;Keyboard;Keyboard;CounterBalanceProc;CounterbalanceList;1;;Keyboard;;;;;;;;1;2;1;TrainProcFlank;PreList;2;2;;TrainFlankerProc20;TrainListFlankerPre20;;;;;;;;;1;1;2;;;;;;;;;;9;9;white;1;a;;H;5;2;19;;;;;;;;TrialProc;FlankerList20;50%;;;;;;;;;;H;1;a;Keyboard;a;368;19
SeminarExperimentWS2324;306;1;"<?xml version=""1.0""?>\n<Clock xmlns:dt=""urn:schemas-microsoft-com:datatypes""><Description dt:dt=""string"">E-Prime Primary Realtime Clock</Description><StartTime><Timestamp dt:dt=""int"">0</Timestamp><DateUtc dt:dt=""string"">2023-10-26T19:56:39Z</DateUtc></StartTime><FrequencyChanges><FrequencyChange><Frequency dt:dt=""r8"">10000000</Frequency><Timestamp dt:dt=""r8"">7094437297712</Timestamp><Current dt:dt=""r8"">0</Current><DateUtc dt:dt=""string"">2023-10-26T19:56:39Z</DateUtc></FrequencyChange></FrequencyChanges></Clock>\n";SeminarExperimentWS2324-0306-1;;;;60.033;1.0.0.48;1;Keyboard;Keyboard;Keyboard;-845970411;Full;3.0.3.214;3.0.3.214;10-26-2023;26.10.2023 19:56;21:56:40;3.0.3.214;1;2;2;1;Keyboard;Keyboard;CounterBalanceProc;CounterbalanceList;1;;Keyboard;;;;;;;;1;2;1;TrainProcFlank;PreList;2;2;;TrainFlankerProc20;TrainListFlankerPre20;;;;;;;;;1;1;2;;;;;;;;;;10;10;white;1;{BACKSLASH};;S;4;2;20;;;;;;;;TrialProc;FlankerList20;50%;;;;;;;;;;S;1;{BACKSLASH};Keyboard;{BACKSLASH};427;20
SeminarExperimentWS2324;306;1;"<?xml version=""1.0""?>\n<Clock xmlns:dt=""urn:schemas-microsoft-com:datatypes""><Description dt:dt=""string"">E-Prime Primary Realtime Clock</Description><StartTime><Timestamp dt:dt=""int"">0</Timestamp><DateUtc dt:dt=""string"">2023-10-26T19:56:39Z</DateUtc></StartTime><FrequencyChanges><FrequencyChange><Frequency dt:dt=""r8"">10000000</Frequency><Timestamp dt:dt=""r8"">7094437297712</Timestamp><Current dt:dt=""r8"">0</Current><DateUtc dt:dt=""string"">2023-10-26T19:56:39Z</DateUtc></FrequencyChange></FrequencyChanges></Clock>\n";SeminarExperimentWS2324-0306-1;;;;60.033;1.0.0.48;1;Keyboard;Keyboard;Keyboard;-845970411;Full;3.0.3.214;3.0.3.214;10-26-2023;26.10.2023 19:56;21:56:40;3.0.3.214;1;2;2;1;Keyboard;Keyboard;CounterBalanceProc;CounterbalanceList;1;;Keyboard;;;;;;;;1;2;1;TrainProcFlank;PreList;3;3;;TrainFlankerProc20;TrainListFlankerPre20;;;;;;;;;1;1;3;;;;;;;;;;1;1;white;1;{BACKSLASH};;S;2;3;21;;;;;;;;TrialProc;FlankerList20;50%;;;;;;;;;;S;1;{BACKSLASH};Keyboard;{BACKSLASH};379;21
SeminarExperimentWS2324;306;1;"<?xml version=""1.0""?>\n<Clock xmlns:dt=""urn:schemas-microsoft-com:datatypes""><Description dt:dt=""string"">E-Prime Primary Realtime Clock</Description><StartTime><Timestamp dt:dt=""int"">0</Timestamp><DateUtc dt:dt=""string"">2023-10-26T19:56:39Z</DateUtc></StartTime><FrequencyChanges><FrequencyChange><Frequency dt:dt=""r8"">10000000</Frequency><Timestamp dt:dt=""r8"">7094437297712</Timestamp><Current dt:dt=""r8"">0</Current><DateUtc dt:dt=""string"">2023-10-26T19:56:39Z</DateUtc></FrequencyChange></FrequencyChanges></Clock>\n";SeminarExperimentWS2324-0306-1;;;;60.033;1.0.0.48;1;Keyboard;Keyboard;Keyboard;-845970411;Full;3.0.3.214;3.0.3.214;10-26-2023;26.10.2023 19:56;21:56:40;3.0.3.214;1;2;2;1;Keyboard;Keyboard;CounterBalanceProc;CounterbalanceList;1;;Keyboard;;;;;;;;1;2;1;TrainProcFlank;PreList;3;3;;TrainFlankerProc20;TrainListFlankerPre20;;;;;;;;;1;1;3;;;;;;;;;;2;2;white;1;{BACKSLASH};;S;8;3;22;;;;;;;;TrialProc;FlankerList20;50%;;;;;;;;;;S;1;{BACKSLASH};Keyboard;{BACKSLASH};365;22
SeminarExperimentWS2324;306;1;"<?xml version=""1.0""?>\n<Clock xmlns:dt=""urn:schemas-microsoft-com:datatypes""><Description dt:dt=""string"">E-Prime Primary Realtime Clock</Description><StartTime><Timestamp dt:dt=""int"">0</Timestamp><DateUtc dt:dt=""string"">2023-10-26T19:56:39Z</DateUtc></StartTime><FrequencyChanges><FrequencyChange><Frequency dt:dt=""r8"">10000000</Frequency><Timestamp dt:dt=""r8"">7094437297712</Timestamp><Current dt:dt=""r8"">0</Current><DateUtc dt:dt=""string"">2023-10-26T19:56:39Z</DateUtc></FrequencyChange></FrequencyChanges></Clock>\n";SeminarExperimentWS2324-0306-1;;;;60.033;1.0.0.48;1;Keyboard;Keyboard;Keyboard;-845970411;Full;3.0.3.214;3.0.3.214;10-26-2023;26.10.2023 19:56;21:56:40;3.0.3.214;1;2;2;1;Keyboard;Keyboard;CounterBalanceProc;CounterbalanceList;1;;Keyboard;;;;;;;;1;2;1;TrainProcFlank;PreList;3;3;;TrainFlankerProc20;TrainListFlankerPre20;;;;;;;;;1;1;3;;;;;;;;;;3;3;white;1;a;;H;3;3;23;;;;;;;;TrialProc;FlankerList20;50%;;;;;;;;;;H;1;a;Keyboard;a;445;23
SeminarExperimentWS2324;306;1;"<?xml version=""1.0""?>\n<Clock xmlns:dt=""urn:schemas-microsoft-com:datatypes""><Description dt:dt=""string"">E-Prime Primary Realtime Clock</Description><StartTime><Timestamp dt:dt=""int"">0</Timestamp><DateUtc dt:dt=""string"">2023-10-26T19:56:39Z</DateUtc></StartTime><FrequencyChanges><FrequencyChange><Frequency dt:dt=""r8"">10000000</Frequency><Timestamp dt:dt=""r8"">7094437297712</Timestamp><Current dt:dt=""r8"">0</Current><DateUtc dt:dt=""string"">2023-10-26T19:56:39Z</DateUtc></FrequencyChange></FrequencyChanges></Clock>\n";SeminarExperimentWS2324-0306-1;;;;60.033;1.0.0.48;1;Keyboard;Keyboard;Keyboard;-845970411;Full;3.0.3.214;3.0.3.214;10-26-2023;26.10.2023 19:56;21:56:40;3.0.3.214;1;2;2;1;Keyboard;Keyboard;CounterBalanceProc;CounterbalanceList;1;;Keyboard;;;;;;;;1;2;1;TrainProcFlank;PreList;3;3;;TrainFlankerProc20;TrainListFlankerPre20;;;;;;;;;1;1;3;;;;;;;;;;4;4;white;1;a;;H;1;3;24;;;;;;;;TrialProc;FlankerList20;50%;;;;;;;;;;H;1;a;Keyboard;a;430;24
SeminarExperimentWS2324;306;1;"<?xml version=""1.0""?>\n<Clock xmlns:dt=""urn:schemas-microsoft-com:datatypes""><Description dt:dt=""string"">E-Prime Primary Realtime Clock</Description><StartTime><Timestamp dt:dt=""int"">0</Timestamp><DateUtc dt:dt=""string"">2023-10-26T19:56:39Z</DateUtc></StartTime><FrequencyChanges><FrequencyChange><Frequency dt:dt=""r8"">10000000</Frequency><Timestamp dt:dt=""r8"">7094437297712</Timestamp><Current dt:dt=""r8"">0</Current><DateUtc dt:dt=""string"">2023-10-26T19:56:39Z</DateUtc></FrequencyChange></FrequencyChanges></Clock>\n";SeminarExperimentWS2324-0306-1;;;;60.033;1.0.0.48;1;Keyboard;Keyboard;Keyboard;-845970411;Full;3.0.3.214;3.0.3.214;10-26-2023;26.10.2023 19:56;21:56:40;3.0.3.214;1;2;2;1;Keyboard;Keyboard;CounterBalanceProc;CounterbalanceList;1;;Keyboard;;;;;;;;1;2;1;TrainProcFlank;PreList;3;3;;TrainFlankerProc20;TrainListFlankerPre20;;;;;;;;;1;1;3;;;;;;;;;;5;5;white;1;a;;H;5;3;25;;;;;;;;TrialProc;FlankerList20;50%;;;;;;;;;;H;1;a;Keyboard;a;383;25
SeminarExperimentWS2324;306;1;"<?xml version=""1.0""?>\n<Clock xmlns:dt=""urn:schemas-microsoft-com:datatypes""><Description dt:dt=""string"">E-Prime Primary Realtime Clock</Description><StartTime><Timestamp dt:dt=""int"">0</Timestamp><DateUtc dt:dt=""string"">2023-10-26T19:56:39Z</DateUtc></StartTime><FrequencyChanges><FrequencyChange><Frequency dt:dt=""r8"">10000000</Frequency><Timestamp dt:dt=""r8"">7094437297712</Timestamp><Current dt:dt=""r8"">0</Current><DateUtc dt:dt=""string"">2023-10-26T19:56:39Z</DateUtc></FrequencyChange></FrequencyChanges></Clock>\n";SeminarExperimentWS2324-0306-1;;;;60.033;1.0.0.48;1;Keyboard;Keyboard;Keyboard;-845970411;Full;3.0.3.214;3.0.3.214;10-26-2023;26.10.2023 19:56;21:56:40;3.0.3.214;1;2;2;1;Keyboard;Keyboard;CounterBalanceProc;CounterbalanceList;1;;Keyboard;;;;;;;;1;2;1;TrainProcFlank;PreList;3;3;;TrainFlankerProc20;TrainListFlankerPre20;;;;;;;;;1;1;3;;;;;;;;;;6;6;white;1;{BACKSLASH};;S;6;3;26;;;;;;;;TrialProc;FlankerList20;50%;;;;;;;;;;S;1;{BACKSLASH};Keyboard;{BACKSLASH};385;26
SeminarExperimentWS2324;306;1;"<?xml version=""1.0""?>\n<Clock xmlns:dt=""urn:schemas-microsoft-com:datatypes""><Description dt:dt=""string"">E-Prime Primary Realtime Clock</Description><StartTime><Timestamp dt:dt=""int"">0</Timestamp><DateUtc dt:dt=""string"">2023-10-26T19:56:39Z</DateUtc></StartTime><FrequencyChanges><FrequencyChange><Frequency dt:dt=""r8"">10000000</Frequency><Timestamp dt:dt=""r8"">7094437297712</Timestamp><Current dt:dt=""r8"">0</Current><DateUtc dt:dt=""string"">2023-10-26T19:56:39Z</DateUtc></FrequencyChange></FrequencyChanges></Clock>\n";SeminarExperimentWS2324-0306-1;;;;60.033;1.0.0.48;1;Keyboard;Keyboard;Keyboard;-845970411;Full;3.0.3.214;3.0.3.214;10-26-2023;26.10.2023 19:56;21:56:40;3.0.3.214;1;2;2;1;Keyboard;Keyboard;CounterBalanceProc;CounterbalanceList;1;;Keyboard;;;;;;;;1;2;1;TrainProcFlank;PreList;3;3;;TrainFlankerProc20;TrainListFlankerPre20;;;;;;;;;1;1;3;;;;;;;;;;7;7;white;1;{BACKSLASH};;S;4;3;27;;;;;;;;TrialProc;FlankerList20;50%;;;;;;;;;;S;1;{BACKSLASH};Keyboard;{BACKSLASH};446;27
SeminarExperimentWS2324;306;1;"<?xml version=""1.0""?>\n<Clock xmlns:dt=""urn:schemas-microsoft-com:datatypes""><Description dt:dt=""string"">E-Prime Primary Realtime Clock</Description><StartTime><Timestamp dt:dt=""int"">0</Timestamp><DateUtc dt:dt=""string"">2023-10-26T19:56:39Z</DateUtc></StartTime><FrequencyChanges><FrequencyChange><Frequency dt:dt=""r8"">10000000</Frequency><Timestamp dt:dt=""r8"">7094437297712</Timestamp><Current dt:dt=""r8"">0</Current><DateUtc dt:dt=""string"">2023-10-26T19:56:39Z</DateUtc></FrequencyChange></FrequencyChanges></Clock>\n";SeminarExperimentWS2324-0306-1;;;;60.033;1.0.0.48;1;Keyboard;Keyboard;Keyboard;-845970411;Full;3.0.3.214;3.0.3.214;10-26-2023;26.10.2023 19:56;21:56:40;3.0.3.214;1;2;2;1;Keyboard;Keyboard;CounterBalanceProc;CounterbalanceList;1;;Keyboard;;;;;;;;1;2;1;TrainProcFlank;PreList;3;3;;TrainFlankerProc20;TrainListFlankerPre20;;;;;;;;;1;1;3;;;;;;;;;;8;8;white;1;a;;H;7;3;28;;;;;;;;TrialProc;FlankerList20;50%;;;;;;;;;;H;1;a;Keyboard;a;423;28
SeminarExperimentWS2324;306;1;"<?xml version=""1.0""?>\n<Clock xmlns:dt=""urn:schemas-microsoft-com:datatypes""><Description dt:dt=""string"">E-Prime Primary Realtime Clock</Description><StartTime><Timestamp dt:dt=""int"">0</Timestamp><DateUtc dt:dt=""string"">2023-10-26T19:56:39Z</DateUtc></StartTime><FrequencyChanges><FrequencyChange><Frequency dt:dt=""r8"">10000000</Frequency><Timestamp dt:dt=""r8"">7094437297712</Timestamp><Current dt:dt=""r8"">0</Current><DateUtc dt:dt=""string"">2023-10-26T19:56:39Z</DateUtc></FrequencyChange></FrequencyChanges></Clock>\n";SeminarExperimentWS2324-0306-1;;;;60.033;1.0.0.48;1;Keyboard;Keyboard;Keyboard;-845970411;Full;3.0.3.214;3.0.3.214;10-26-2023;26.10.2023 19:56;21:56:40;3.0.3.214;1;2;2;1;Keyboard;Keyboard;CounterBalanceProc;CounterbalanceList;1;;Keyboard;;;;;;;;1;2;1;TrainProcFlank;PreList;3;3;;TrainFlankerProc20;TrainListFlankerPre20;;;;;;;;;1;1;3;;;;;;;;;;9;9;white;-1;{BACKSLASH};;H;10;3;29;;;;;;;;TrialProc;FlankerList20;50%;;;;;;;;;;S;1;{BACKSLASH};Keyboard;{BACKSLASH};487;29
SeminarExperimentWS2324;306;1;"<?xml version=""1.0""?>\n<Clock xmlns:dt=""urn:schemas-microsoft-com:datatypes""><Description dt:dt=""string"">E-Prime Primary Realtime Clock</Description><StartTime><Timestamp dt:dt=""int"">0</Timestamp><DateUtc dt:dt=""string"">2023-10-26T19:56:39Z</DateUtc></StartTime><FrequencyChanges><FrequencyChange><Frequency dt:dt=""r8"">10000000</Frequency><Timestamp dt:dt=""r8"">7094437297712</Timestamp><Current dt:dt=""r8"">0</Current><DateUtc dt:dt=""string"">2023-10-26T19:56:39Z</DateUtc></FrequencyChange></FrequencyChanges></Clock>\n";SeminarExperimentWS2324-0306-1;;;;60.033;1.0.0.48;1;Keyboard;Keyboard;Keyboard;-845970411;Full;3.0.3.214;3.0.3.214;10-26-2023;26.10.2023 19:56;21:56:40;3.0.3.214;1;2;2;1;Keyboard;Keyboard;CounterBalanceProc;CounterbalanceList;1;;Keyboard;;;;;;;;1;2;1;TrainProcFlank;PreList;3;3;;TrainFlankerProc20;TrainListFlankerPre20;;;;;;;;;1;1;3;;;;;;;;;;10;10;white;-1;a;;S;9;3;30;;;;;;;;TrialProc;FlankerList20;50%;;;;;;;;;;H;1;a;Keyboard;a;562;30
SeminarExperimentWS2324;306;1;"<?xml version=""1.0""?>\n<Clock xmlns:dt=""urn:schemas-microsoft-com:datatypes""><Description dt:dt=""string"">E-Prime Primary Realtime Clock</Description><StartTime><Timestamp dt:dt=""int"">0</Timestamp><DateUtc dt:dt=""string"">2023-10-26T19:56:39Z</DateUtc></StartTime><FrequencyChanges><FrequencyChange><Frequency dt:dt=""r8"">10000000</Frequency><Timestamp dt:dt=""r8"">7094437297712</Timestamp><Current dt:dt=""r8"">0</Current><DateUtc dt:dt=""string"">2023-10-26T19:56:39Z</DateUtc></FrequencyChange></FrequencyChanges></Clock>\n";SeminarExperimentWS2324-0306-1;;;;60.033;1.0.0.48;1;Keyboard;Keyboard;Keyboard;-845970411;Full;3.0.3.214;3.0.3.214;10-26-2023;26.10.2023 19:56;21:56:40;3.0.3.214;1;2;2;1;Keyboard;Keyboard;CounterBalanceProc;CounterbalanceList;1;;Keyboard;;;;;;;;1;2;1;TrainProcFlank;PreList;4;4;;TrainFlankerProc20;TrainListFlankerPre20;;;;;;;;;1;1;4;;;;;;;;;;1;1;white;1;{BACKSLASH};;S;6;4;31;;;;;;;;TrialProc;FlankerList20;50%;;;;;;;;;;S;1;{BACKSLASH};Keyboard;{BACKSLASH};437;31
SeminarExperimentWS2324;306;1;"<?xml version=""1.0""?>\n<Clock xmlns:dt=""urn:schemas-microsoft-com:datatypes""><Description dt:dt=""string"">E-Prime Primary Realtime Clock</Description><StartTime><Timestamp dt:dt=""int"">0</Timestamp><DateUtc dt:dt=""string"">2023-10-26T19:56:39Z</DateUtc></StartTime><FrequencyChanges><FrequencyChange><Frequency dt:dt=""r8"">10000000</Frequency><Timestamp dt:dt=""r8"">7094437297712</Timestamp><Current dt:dt=""r8"">0</Current><DateUtc dt:dt=""string"">2023-10-26T19:56:39Z</DateUtc></FrequencyChange></FrequencyChanges></Clock>\n";SeminarExperimentWS2324-0306-1;;;;60.033;1.0.0.48;1;Keyboard;Keyboard;Keyboard;-845970411;Full;3.0.3.214;3.0.3.214;10-26-2023;26.10.2023 19:56;21:56:40;3.0.3.214;1;2;2;1;Keyboard;Keyboard;CounterBalanceProc;CounterbalanceList;1;;Keyboard;;;;;;;;1;2;1;TrainProcFlank;PreList;4;4;;TrainFlankerProc20;TrainListFlankerPre20;;;;;;;;;1;1;4;;;;;;;;;;2;2;white;1;{BACKSLASH};;S;8;4;32;;;;;;;;TrialProc;FlankerList20;50%;;;;;;;;;;S;1;{BACKSLASH};Keyboard;{BACKSLASH};431;32
SeminarExperimentWS2324;306;1;"<?xml version=""1.0""?>\n<Clock xmlns:dt=""urn:schemas-microsoft-com:datatypes""><Description dt:dt=""string"">E-Prime Primary Realtime Clock</Description><StartTime><Timestamp dt:dt=""int"">0</Timestamp><DateUtc dt:dt=""string"">2023-10-26T19:56:39Z</DateUtc></StartTime><FrequencyChanges><FrequencyChange><Frequency dt:dt=""r8"">10000000</Frequency><Timestamp dt:dt=""r8"">7094437297712</Timestamp><Current dt:dt=""r8"">0</Current><DateUtc dt:dt=""string"">2023-10-26T19:56:39Z</DateUtc></FrequencyChange></FrequencyChanges></Clock>\n";SeminarExperimentWS2324-0306-1;;;;60.033;1.0.0.48;1;Keyboard;Keyboard;Keyboard;-845970411;Full;3.0.3.214;3.0.3.214;10-26-2023;26.10.2023 19:56;21:56:40;3.0.3.214;1;2;2;1;Keyboard;Keyboard;CounterBalanceProc;CounterbalanceList;1;;Keyboard;;;;;;;;1;2;1;TrainProcFlank;PreList;4;4;;TrainFlankerProc20;TrainListFlankerPre20;;;;;;;;;1;1;4;;;;;;;;;;3;3;white;-1;a;;S;9;4;33;;;;;;;;TrialProc;FlankerList20;50%;;;;;;;;;;H;1;a;Keyboard;a;459;33
SeminarExperimentWS2324;306;1;"<?xml version=""1.0""?>\n<Clock xmlns:dt=""urn:schemas-microsoft-com:datatypes""><Description dt:dt=""string"">E-Prime Primary Realtime Clock</Description><StartTime><Timestamp dt:dt=""int"">0</Timestamp><DateUtc dt:dt=""string"">2023-10-26T19:56:39Z</DateUtc></StartTime><FrequencyChanges><FrequencyChange><Frequency dt:dt=""r8"">10000000</Frequency><Timestamp dt:dt=""r8"">7094437297712</Timestamp><Current dt:dt=""r8"">0</Current><DateUtc dt:dt=""string"">2023-10-26T19:56:39Z</DateUtc></FrequencyChange></FrequencyChanges></Clock>\n";SeminarExperimentWS2324-0306-1;;;;60.033;1.0.0.48;1;Keyboard;Keyboard;Keyboard;-845970411;Full;3.0.3.214;3.0.3.214;10-26-2023;26.10.2023 19:56;21:56:40;3.0.3.214;1;2;2;1;Keyboard;Keyboard;CounterBalanceProc;CounterbalanceList;1;;Keyboard;;;;;;;;1;2;1;TrainProcFlank;PreList;4;4;;TrainFlankerProc20;TrainListFlankerPre20;;;;;;;;;1;1;4;;;;;;;;;;4;4;white;1;{BACKSLASH};;S;4;4;34;;;;;;;;TrialProc;FlankerList20;50%;;;;;;;;;;S;1;{BACKSLASH};Keyboard;{BACKSLASH};449;34
SeminarExperimentWS2324;306;1;"<?xml version=""1.0""?>\n<Clock xmlns:dt=""urn:schemas-microsoft-com:datatypes""><Description dt:dt=""string"">E-Prime Primary Realtime Clock</Description><StartTime><Timestamp dt:dt=""int"">0</Timestamp><DateUtc dt:dt=""string"">2023-10-26T19:56:39Z</DateUtc></StartTime><FrequencyChanges><FrequencyChange><Frequency dt:dt=""r8"">10000000</Frequency><Timestamp dt:dt=""r8"">7094437297712</Timestamp><Current dt:dt=""r8"">0</Current><DateUtc dt:dt=""string"">2023-10-26T19:56:39Z</DateUtc></FrequencyChange></FrequencyChanges></Clock>\n";SeminarExperimentWS2324-0306-1;;;;60.033;1.0.0.48;1;Keyboard;Keyboard;Keyboard;-845970411;Full;3.0.3.214;3.0.3.214;10-26-2023;26.10.2023 19:56;21:56:40;3.0.3.214;1;2;2;1;Keyboard;Keyboard;CounterBalanceProc;CounterbalanceList;1;;Keyboard;;;;;;;;1;2;1;TrainProcFlank;PreList;4;4;;TrainFlankerProc20;TrainListFlankerPre20;;;;;;;;;1;1;4;;;;;;;;;;5;5;white;1;a;;H;5;4;35;;;;;;;;TrialProc;FlankerList20;50%;;;;;;;;;;H;1;a;Keyboard;a;632;35
SeminarExperimentWS2324;306;1;"<?xml version=""1.0""?>\n<Clock xmlns:dt=""urn:schemas-microsoft-com:datatypes""><Description dt:dt=""string"">E-Prime Primary Realtime Clock</Description><StartTime><Timestamp dt:dt=""int"">0</Timestamp><DateUtc dt:dt=""string"">2023-10-26T19:56:39Z</DateUtc></StartTime><FrequencyChanges><FrequencyChange><Frequency dt:dt=""r8"">10000000</Frequency><Timestamp dt:dt=""r8"">7094437297712</Timestamp><Current dt:dt=""r8"">0</Current><DateUtc dt:dt=""string"">2023-10-26T19:56:39Z</DateUtc></FrequencyChange></FrequencyChanges></Clock>\n";SeminarExperimentWS2324-0306-1;;;;60.033;1.0.0.48;1;Keyboard;Keyboard;Keyboard;-845970411;Full;3.0.3.214;3.0.3.214;10-26-2023;26.10.2023 19:56;21:56:40;3.0.3.214;1;2;2;1;Keyboard;Keyboard;CounterBalanceProc;CounterbalanceList;1;;Keyboard;;;;;;;;1;2;1;TrainProcFlank;PreList;4;4;;TrainFlankerProc20;TrainListFlankerPre20;;;;;;;;;1;1;4;;;;;;;;;;6;6;white;1;a;;H;3;4;36;;;;;;;;TrialProc;FlankerList20;50%;;;;;;;;;;H;1;a;Keyboard;a;426;36
SeminarExperimentWS2324;306;1;"<?xml version=""1.0""?>\n<Clock xmlns:dt=""urn:schemas-microsoft-com:datatypes""><Description dt:dt=""string"">E-Prime Primary Realtime Clock</Description><StartTime><Timestamp dt:dt=""int"">0</Timestamp><DateUtc dt:dt=""string"">2023-10-26T19:56:39Z</DateUtc></StartTime><FrequencyChanges><FrequencyChange><Frequency dt:dt=""r8"">10000000</Frequency><Timestamp dt:dt=""r8"">7094437297712</Timestamp><Current dt:dt=""r8"">0</Current><DateUtc dt:dt=""string"">2023-10-26T19:56:39Z</DateUtc></FrequencyChange></FrequencyChanges></Clock>\n";SeminarExperimentWS2324-0306-1;;;;60.033;1.0.0.48;1;Keyboard;Keyboard;Keyboard;-845970411;Full;3.0.3.214;3.0.3.214;10-26-2023;26.10.2023 19:56;21:56:40;3.0.3.214;1;2;2;1;Keyboard;Keyboard;CounterBalanceProc;CounterbalanceList;1;;Keyboard;;;;;;;;1;2;1;TrainProcFlank;PreList;4;4;;TrainFlankerProc20;TrainListFlankerPre20;;;;;;;;;1;1;4;;;;;;;;;;7;7;white;1;a;;H;1;4;37;;;;;;;;TrialProc;FlankerList20;50%;;;;;;;;;;H;1;a;Keyboard;a;405;37
SeminarExperimentWS2324;306;1;"<?xml version=""1.0""?>\n<Clock xmlns:dt=""urn:schemas-microsoft-com:datatypes""><Description dt:dt=""string"">E-Prime Primary Realtime Clock</Description><StartTime><Timestamp dt:dt=""int"">0</Timestamp><DateUtc dt:dt=""string"">2023-10-26T19:56:39Z</DateUtc></StartTime><FrequencyChanges><FrequencyChange><Frequency dt:dt=""r8"">10000000</Frequency><Timestamp dt:dt=""r8"">7094437297712</Timestamp><Current dt:dt=""r8"">0</Current><DateUtc dt:dt=""string"">2023-10-26T19:56:39Z</DateUtc></FrequencyChange></FrequencyChanges></Clock>\n";SeminarExperimentWS2324-0306-1;;;;60.033;1.0.0.48;1;Keyboard;Keyboard;Keyboard;-845970411;Full;3.0.3.214;3.0.3.214;10-26-2023;26.10.2023 19:56;21:56:40;3.0.3.214;1;2;2;1;Keyboard;Keyboard;CounterBalanceProc;CounterbalanceList;1;;Keyboard;;;;;;;;1;2;1;TrainProcFlank;PreList;4;4;;TrainFlankerProc20;TrainListFlankerPre20;;;;;;;;;1;1;4;;;;;;;;;;8;8;white;-1;{BACKSLASH};;H;10;4;38;;;;;;;;TrialProc;FlankerList20;50%;;;;;;;;;;S;1;{BACKSLASH};Keyboard;{BACKSLASH};501;38
SeminarExperimentWS2324;306;1;"<?xml version=""1.0""?>\n<Clock xmlns:dt=""urn:schemas-microsoft-com:datatypes""><Description dt:dt=""string"">E-Prime Primary Realtime Clock</Description><StartTime><Timestamp dt:dt=""int"">0</Timestamp><DateUtc dt:dt=""string"">2023-10-26T19:56:39Z</DateUtc></StartTime><FrequencyChanges><FrequencyChange><Frequency dt:dt=""r8"">10000000</Frequency><Timestamp dt:dt=""r8"">7094437297712</Timestamp><Current dt:dt=""r8"">0</Current><DateUtc dt:dt=""string"">2023-10-26T19:56:39Z</DateUtc></FrequencyChange></FrequencyChanges></Clock>\n";SeminarExperimentWS2324-0306-1;;;;60.033;1.0.0.48;1;Keyboard;Keyboard;Keyboard;-845970411;Full;3.0.3.214;3.0.3.214;10-26-2023;26.10.2023 19:56;21:56:40;3.0.3.214;1;2;2;1;Keyboard;Keyboard;CounterBalanceProc;CounterbalanceList;1;;Keyboard;;;;;;;;1;2;1;TrainProcFlank;PreList;4;4;;TrainFlankerProc20;TrainListFlankerPre20;;;;;;;;;1;1;4;;;;;;;;;;9;9;white;1;a;;H;7;4;39;;;;;;;;TrialProc;FlankerList20;50%;;;;;;;;;;H;1;a;Keyboard;a;424;39
SeminarExperimentWS2324;306;1;"<?xml version=""1.0""?>\n<Clock xmlns:dt=""urn:schemas-microsoft-com:datatypes""><Description dt:dt=""string"">E-Prime Primary Realtime Clock</Description><StartTime><Timestamp dt:dt=""int"">0</Timestamp><DateUtc dt:dt=""string"">2023-10-26T19:56:39Z</DateUtc></StartTime><FrequencyChanges><FrequencyChange><Frequency dt:dt=""r8"">10000000</Frequency><Timestamp dt:dt=""r8"">7094437297712</Timestamp><Current dt:dt=""r8"">0</Current><DateUtc dt:dt=""string"">2023-10-26T19:56:39Z</DateUtc></FrequencyChange></FrequencyChanges></Clock>\n";SeminarExperimentWS2324-0306-1;;;;60.033;1.0.0.48;1;Keyboard;Keyboard;Keyboard;-845970411;Full;3.0.3.214;3.0.3.214;10-26-2023;26.10.2023 19:56;21:56:40;3.0.3.214;1;2;2;1;Keyboard;Keyboard;CounterBalanceProc;CounterbalanceList;1;;Keyboard;;;;;;;;1;2;1;TrainProcFlank;PreList;4;4;;TrainFlankerProc20;TrainListFlankerPre20;;;;;;;;;1;1;4;;;;;;;;;;10;10;white;1;{BACKSLASH};;S;2;4;40;;;;;;;;TrialProc;FlankerList20;50%;;;;;;;;;;S;1;{BACKSLASH};Keyboard;{BACKSLASH};381;40
SeminarExperimentWS2324;306;1;"<?xml version=""1.0""?>\n<Clock xmlns:dt=""urn:schemas-microsoft-com:datatypes""><Description dt:dt=""string"">E-Prime Primary Realtime Clock</Description><StartTime><Timestamp dt:dt=""int"">0</Timestamp><DateUtc dt:dt=""string"">2023-10-26T19:56:39Z</DateUtc></StartTime><FrequencyChanges><FrequencyChange><Frequency dt:dt=""r8"">10000000</Frequency><Timestamp dt:dt=""r8"">7094437297712</Timestamp><Current dt:dt=""r8"">0</Current><DateUtc dt:dt=""string"">2023-10-26T19:56:39Z</DateUtc></FrequencyChange></FrequencyChanges></Clock>\n";SeminarExperimentWS2324-0306-1;;;;60.033;1.0.0.48;1;Keyboard;Keyboard;Keyboard;-845970411;Full;3.0.3.214;3.0.3.214;10-26-2023;26.10.2023 19:56;21:56:40;3.0.3.214;1;2;2;1;Keyboard;Keyboard;CounterBalanceProc;CounterbalanceList;1;;Keyboard;;;;;;;;1;2;1;TrainProcFlank;PreList;5;5;;TrainFlankerProc20;TrainListFlankerPre20;;;;;;;;;1;1;5;;;;;;;;;;1;1;white;-1;{BACKSLASH};;H;10;5;41;;;;;;;;TrialProc;FlankerList20;50%;;;;;;;;;;S;1;{BACKSLASH};Keyboard;{BACKSLASH};384;41
SeminarExperimentWS2324;306;1;"<?xml version=""1.0""?>\n<Clock xmlns:dt=""urn:schemas-microsoft-com:datatypes""><Description dt:dt=""string"">E-Prime Primary Realtime Clock</Description><StartTime><Timestamp dt:dt=""int"">0</Timestamp><DateUtc dt:dt=""string"">2023-10-26T19:56:39Z</DateUtc></StartTime><FrequencyChanges><FrequencyChange><Frequency dt:dt=""r8"">10000000</Frequency><Timestamp dt:dt=""r8"">7094437297712</Timestamp><Current dt:dt=""r8"">0</Current><DateUtc dt:dt=""string"">2023-10-26T19:56:39Z</DateUtc></FrequencyChange></FrequencyChanges></Clock>\n";SeminarExperimentWS2324-0306-1;;;;60.033;1.0.0.48;1;Keyboard;Keyboard;Keyboard;-845970411;Full;3.0.3.214;3.0.3.214;10-26-2023;26.10.2023 19:56;21:56:40;3.0.3.214;1;2;2;1;Keyboard;Keyboard;CounterBalanceProc;CounterbalanceList;1;;Keyboard;;;;;;;;1;2;1;TrainProcFlank;PreList;5;5;;TrainFlankerProc20;TrainListFlankerPre20;;;;;;;;;1;1;5;;;;;;;;;;2;2;white;1;a;;H;7;5;42;;;;;;;;TrialProc;FlankerList20;50%;;;;;;;;;;H;1;a;Keyboard;a;407;42
SeminarExperimentWS2324;306;1;"<?xml version=""1.0""?>\n<Clock xmlns:dt=""urn:schemas-microsoft-com:datatypes""><Description dt:dt=""string"">E-Prime Primary Realtime Clock</Description><StartTime><Timestamp dt:dt=""int"">0</Timestamp><DateUtc dt:dt=""string"">2023-10-26T19:56:39Z</DateUtc></StartTime><FrequencyChanges><FrequencyChange><Frequency dt:dt=""r8"">10000000</Frequency><Timestamp dt:dt=""r8"">7094437297712</Timestamp><Current dt:dt=""r8"">0</Current><DateUtc dt:dt=""string"">2023-10-26T19:56:39Z</DateUtc></FrequencyChange></FrequencyChanges></Clock>\n";SeminarExperimentWS2324-0306-1;;;;60.033;1.0.0.48;1;Keyboard;Keyboard;Keyboard;-845970411;Full;3.0.3.214;3.0.3.214;10-26-2023;26.10.2023 19:56;21:56:40;3.0.3.214;1;2;2;1;Keyboard;Keyboard;CounterBalanceProc;CounterbalanceList;1;;Keyboard;;;;;;;;1;2;1;TrainProcFlank;PreList;5;5;;TrainFlankerProc20;TrainListFlankerPre20;;;;;;;;;1;1;5;;;;;;;;;;3;3;white;1;{BACKSLASH};;S;8;5;43;;;;;;;;TrialProc;FlankerList20;50%;;;;;;;;;;S;1;{BACKSLASH};Keyboard;{BACKSLASH};358;43
SeminarExperimentWS2324;306;1;"<?xml version=""1.0""?>\n<Clock xmlns:dt=""urn:schemas-microsoft-com:datatypes""><Description dt:dt=""string"">E-Prime Primary Realtime Clock</Description><StartTime><Timestamp dt:dt=""int"">0</Timestamp><DateUtc dt:dt=""string"">2023-10-26T19:56:39Z</DateUtc></StartTime><FrequencyChanges><FrequencyChange><Frequency dt:dt=""r8"">10000000</Frequency><Timestamp dt:dt=""r8"">7094437297712</Timestamp><Current dt:dt=""r8"">0</Current><DateUtc dt:dt=""string"">2023-10-26T19:56:39Z</DateUtc></FrequencyChange></FrequencyChanges></Clock>\n";SeminarExperimentWS2324-0306-1;;;;60.033;1.0.0.48;1;Keyboard;Keyboard;Keyboard;-845970411;Full;3.0.3.214;3.0.3.214;10-26-2023;26.10.2023 19:56;21:56:40;3.0.3.214;1;2;2;1;Keyboard;Keyboard;CounterBalanceProc;CounterbalanceList;1;;Keyboard;;;;;;;;1;2;1;TrainProcFlank;PreList;5;5;;TrainFlankerProc20;TrainListFlankerPre20;;;;;;;;;1;1;5;;;;;;;;;;4;4;white;1;{BACKSLASH};;S;2;5;44;;;;;;;;TrialProc;FlankerList20;50%;;;;;;;;;;S;1;{BACKSLASH};Keyboard;{BACKSLASH};388;44
SeminarExperimentWS2324;306;1;"<?xml version=""1.0""?>\n<Clock xmlns:dt=""urn:schemas-microsoft-com:datatypes""><Description dt:dt=""string"">E-Prime Primary Realtime Clock</Description><StartTime><Timestamp dt:dt=""int"">0</Timestamp><DateUtc dt:dt=""string"">2023-10-26T19:56:39Z</DateUtc></StartTime><FrequencyChanges><FrequencyChange><Frequency dt:dt=""r8"">10000000</Frequency><Timestamp dt:dt=""r8"">7094437297712</Timestamp><Current dt:dt=""r8"">0</Current><DateUtc dt:dt=""string"">2023-10-26T19:56:39Z</DateUtc></FrequencyChange></FrequencyChanges></Clock>\n";SeminarExperimentWS2324-0306-1;;;;60.033;1.0.0.48;1;Keyboard;Keyboard;Keyboard;-845970411;Full;3.0.3.214;3.0.3.214;10-26-2023;26.10.2023 19:56;21:56:40;3.0.3.214;1;2;2;1;Keyboard;Keyboard;CounterBalanceProc;CounterbalanceList;1;;Keyboard;;;;;;;;1;2;1;TrainProcFlank;PreList;5;5;;TrainFlankerProc20;TrainListFlankerPre20;;;;;;;;;1;1;5;;;;;;;;;;5;5;white;-1;a;;S;9;5;45;;;;;;;;TrialProc;FlankerList20;50%;;;;;;;;;;H;1;a;Keyboard;a;496;45
SeminarExperimentWS2324;306;1;"<?xml version=""1.0""?>\n<Clock xmlns:dt=""urn:schemas-microsoft-com:datatypes""><Description dt:dt=""string"">E-Prime Primary Realtime Clock</Description><StartTime><Timestamp dt:dt=""int"">0</Timestamp><DateUtc dt:dt=""string"">2023-10-26T19:56:39Z</DateUtc></StartTime><FrequencyChanges><FrequencyChange><Frequency dt:dt=""r8"">10000000</Frequency><Timestamp dt:dt=""r8"">7094437297712</Timestamp><Current dt:dt=""r8"">0</Current><DateUtc dt:dt=""string"">2023-10-26T19:56:39Z</DateUtc></FrequencyChange></FrequencyChanges></Clock>\n";SeminarExperimentWS2324-0306-1;;;;60.033;1.0.0.48;1;Keyboard;Keyboard;Keyboard;-845970411;Full;3.0.3.214;3.0.3.214;10-26-2023;26.10.2023 19:56;21:56:40;3.0.3.214;1;2;2;1;Keyboard;Keyboard;CounterBalanceProc;CounterbalanceList;1;;Keyboard;;;;;;;;1;2;1;TrainProcFlank;PreList;5;5;;TrainFlankerProc20;TrainListFlankerPre20;;;;;;;;;1;1;5;;;;;;;;;;6;6;white;1;{BACKSLASH};;S;6;5;46;;;;;;;;TrialProc;FlankerList20;50%;;;;;;;;;;S;1;{BACKSLASH};Keyboard;{BACKSLASH};444;46
SeminarExperimentWS2324;306;1;"<?xml version=""1.0""?>\n<Clock xmlns:dt=""urn:schemas-microsoft-com:datatypes""><Description dt:dt=""string"">E-Prime Primary Realtime Clock</Description><StartTime><Timestamp dt:dt=""int"">0</Timestamp><DateUtc dt:dt=""string"">2023-10-26T19:56:39Z</DateUtc></StartTime><FrequencyChanges><FrequencyChange><Frequency dt:dt=""r8"">10000000</Frequency><Timestamp dt:dt=""r8"">7094437297712</Timestamp><Current dt:dt=""r8"">0</Current><DateUtc dt:dt=""string"">2023-10-26T19:56:39Z</DateUtc></FrequencyChange></FrequencyChanges></Clock>\n";SeminarExperimentWS2324-0306-1;;;;60.033;1.0.0.48;1;Keyboard;Keyboard;Keyboard;-845970411;Full;3.0.3.214;3.0.3.214;10-26-2023;26.10.2023 19:56;21:56:40;3.0.3.214;1;2;2;1;Keyboard;Keyboard;CounterBalanceProc;CounterbalanceList;1;;Keyboard;;;;;;;;1;2;1;TrainProcFlank;PreList;5;5;;TrainFlankerProc20;TrainListFlankerPre20;;;;;;;;;1;1;5;;;;;;;;;;7;7;white;1;{BACKSLASH};;S;4;5;47;;;;;;;;TrialProc;FlankerList20;50%;;;;;;;;;;S;1;{BACKSLASH};Keyboard;{BACKSLASH};347;47
SeminarExperimentWS2324;306;1;"<?xml version=""1.0""?>\n<Clock xmlns:dt=""urn:schemas-microsoft-com:datatypes""><Description dt:dt=""string"">E-Prime Primary Realtime Clock</Description><StartTime><Timestamp dt:dt=""int"">0</Timestamp><DateUtc dt:dt=""string"">2023-10-26T19:56:39Z</DateUtc></StartTime><FrequencyChanges><FrequencyChange><Frequency dt:dt=""r8"">10000000</Frequency><Timestamp dt:dt=""r8"">7094437297712</Timestamp><Current dt:dt=""r8"">0</Current><DateUtc dt:dt=""string"">2023-10-26T19:56:39Z</DateUtc></FrequencyChange></FrequencyChanges></Clock>\n";SeminarExperimentWS2324-0306-1;;;;60.033;1.0.0.48;1;Keyboard;Keyboard;Keyboard;-845970411;Full;3.0.3.214;3.0.3.214;10-26-2023;26.10.2023 19:56;21:56:40;3.0.3.214;1;2;2;1;Keyboard;Keyboard;CounterBalanceProc;CounterbalanceList;1;;Keyboard;;;;;;;;1;2;1;TrainProcFlank;PreList;5;5;;TrainFlankerProc20;TrainListFlankerPre20;;;;;;;;;1;1;5;;;;;;;;;;8;8;white;1;a;;H;1;5;48;;;;;;;;TrialProc;FlankerList20;50%;;;;;;;;;;H;1;a;Keyboard;a;416;48
SeminarExperimentWS2324;306;1;"<?xml version=""1.0""?>\n<Clock xmlns:dt=""urn:schemas-microsoft-com:datatypes""><Description dt:dt=""string"">E-Prime Primary Realtime Clock</Description><StartTime><Timestamp dt:dt=""int"">0</Timestamp><DateUtc dt:dt=""string"">2023-10-26T19:56:39Z</DateUtc></StartTime><FrequencyChanges><FrequencyChange><Frequency dt:dt=""r8"">10000000</Frequency><Timestamp dt:dt=""r8"">7094437297712</Timestamp><Current dt:dt=""r8"">0</Current><DateUtc dt:dt=""string"">2023-10-26T19:56:39Z</DateUtc></FrequencyChange></FrequencyChanges></Clock>\n";SeminarExperimentWS2324-0306-1;;;;60.033;1.0.0.48;1;Keyboard;Keyboard;Keyboard;-845970411;Full;3.0.3.214;3.0.3.214;10-26-2023;26.10.2023 19:56;21:56:40;3.0.3.214;1;2;2;1;Keyboard;Keyboard;CounterBalanceProc;CounterbalanceList;1;;Keyboard;;;;;;;;1;2;1;TrainProcFlank;PreList;5;5;;TrainFlankerProc20;TrainListFlankerPre20;;;;;;;;;1;1;5;;;;;;;;;;9;9;white;1;a;;H;3;5;49;;;;;;;;TrialProc;FlankerList20;50%;;;;;;;;;;H;1;a;Keyboard;a;402;49
SeminarExperimentWS2324;306;1;"<?xml version=""1.0""?>\n<Clock xmlns:dt=""urn:schemas-microsoft-com:datatypes""><Description dt:dt=""string"">E-Prime Primary Realtime Clock</Description><StartTime><Timestamp dt:dt=""int"">0</Timestamp><DateUtc dt:dt=""string"">2023-10-26T19:56:39Z</DateUtc></StartTime><FrequencyChanges><FrequencyChange><Frequency dt:dt=""r8"">10000000</Frequency><Timestamp dt:dt=""r8"">7094437297712</Timestamp><Current dt:dt=""r8"">0</Current><DateUtc dt:dt=""string"">2023-10-26T19:56:39Z</DateUtc></FrequencyChange></FrequencyChanges></Clock>\n";SeminarExperimentWS2324-0306-1;;;;60.033;1.0.0.48;1;Keyboard;Keyboard;Keyboard;-845970411;Full;3.0.3.214;3.0.3.214;10-26-2023;26.10.2023 19:56;21:56:40;3.0.3.214;1;2;2;1;Keyboard;Keyboard;CounterBalanceProc;CounterbalanceList;1;;Keyboard;;;;;;;;1;2;1;TrainProcFlank;PreList;5;5;;TrainFlankerProc20;TrainListFlankerPre20;;;;;;;;;1;1;5;;;;;;;;;;10;10;white;1;a;;H;5;5;50;;;;;;;;TrialProc;FlankerList20;50%;;;;;;;;;;H;1;a;Keyboard;a;344;50
SeminarExperimentWS2324;306;1;"<?xml version=""1.0""?>\n<Clock xmlns:dt=""urn:schemas-microsoft-com:datatypes""><Description dt:dt=""string"">E-Prime Primary Realtime Clock</Description><StartTime><Timestamp dt:dt=""int"">0</Timestamp><DateUtc dt:dt=""string"">2023-10-26T19:56:39Z</DateUtc></StartTime><FrequencyChanges><FrequencyChange><Frequency dt:dt=""r8"">10000000</Frequency><Timestamp dt:dt=""r8"">7094437297712</Timestamp><Current dt:dt=""r8"">0</Current><DateUtc dt:dt=""string"">2023-10-26T19:56:39Z</DateUtc></FrequencyChange></FrequencyChanges></Clock>\n";SeminarExperimentWS2324-0306-1;;;;60.033;1.0.0.48;1;Keyboard;Keyboard;Keyboard;-845970411;Full;3.0.3.214;3.0.3.214;10-26-2023;26.10.2023 19:56;21:56:40;3.0.3.214;1;2;2;1;Keyboard;Keyboard;CounterBalanceProc;CounterbalanceList;1;;Keyboard;;;;;;;;1;2;1;TrainProcFlank;PreList;6;6;;TrainFlankerProc80;TrainListFlankerPre80;;;;;;;;;;;;1;1;1;;;;;;;1;1;white;-1;{BACKSLASH};Fehler!;H;;;;;;;8;1;1;;TrialProc;FlankerList80;50%;;;;;;;;;;S;0;{BACKSLASH};Keyboard;a;382;51
SeminarExperimentWS2324;306;1;"<?xml version=""1.0""?>\n<Clock xmlns:dt=""urn:schemas-microsoft-com:datatypes""><Description dt:dt=""string"">E-Prime Primary Realtime Clock</Description><StartTime><Timestamp dt:dt=""int"">0</Timestamp><DateUtc dt:dt=""string"">2023-10-26T19:56:39Z</DateUtc></StartTime><FrequencyChanges><FrequencyChange><Frequency dt:dt=""r8"">10000000</Frequency><Timestamp dt:dt=""r8"">7094437297712</Timestamp><Current dt:dt=""r8"">0</Current><DateUtc dt:dt=""string"">2023-10-26T19:56:39Z</DateUtc></FrequencyChange></FrequencyChanges></Clock>\n";SeminarExperimentWS2324-0306-1;;;;60.033;1.0.0.48;1;Keyboard;Keyboard;Keyboard;-845970411;Full;3.0.3.214;3.0.3.214;10-26-2023;26.10.2023 19:56;21:56:40;3.0.3.214;1;2;2;1;Keyboard;Keyboard;CounterBalanceProc;CounterbalanceList;1;;Keyboard;;;;;;;;1;2;1;TrainProcFlank;PreList;6;6;;TrainFlankerProc80;TrainListFlankerPre80;;;;;;;;;;;;1;1;1;;;;;;;2;2;white;-1;a;;S;;;;;;;5;1;2;;TrialProc;FlankerList80;50%;;;;;;;;;;H;1;a;Keyboard;a;431;52
SeminarExperimentWS2324;306;1;"<?xml version=""1.0""?>\n<Clock xmlns:dt=""urn:schemas-microsoft-com:datatypes""><Description dt:dt=""string"">E-Prime Primary Realtime Clock</Description><StartTime><Timestamp dt:dt=""int"">0</Timestamp><DateUtc dt:dt=""string"">2023-10-26T19:56:39Z</DateUtc></StartTime><FrequencyChanges><FrequencyChange><Frequency dt:dt=""r8"">10000000</Frequency><Timestamp dt:dt=""r8"">7094437297712</Timestamp><Current dt:dt=""r8"">0</Current><DateUtc dt:dt=""string"">2023-10-26T19:56:39Z</DateUtc></FrequencyChange></FrequencyChanges></Clock>\n";SeminarExperimentWS2324-0306-1;;;;60.033;1.0.0.48;1;Keyboard;Keyboard;Keyboard;-845970411;Full;3.0.3.214;3.0.3.214;10-26-2023;26.10.2023 19:56;21:56:40;3.0.3.214;1;2;2;1;Keyboard;Keyboard;CounterBalanceProc;CounterbalanceList;1;;Keyboard;;;;;;;;1;2;1;TrainProcFlank;PreList;6;6;;TrainFlankerProc80;TrainListFlankerPre80;;;;;;;;;;;;1;1;1;;;;;;;3;3;white;1;a;;H;;;;;;;1;1;3;;TrialProc;FlankerList80;50%;;;;;;;;;;H;1;a;Keyboard;a;416;53
SeminarExperimentWS2324;306;1;"<?xml version=""1.0""?>\n<Clock xmlns:dt=""urn:schemas-microsoft-com:datatypes""><Description dt:dt=""string"">E-Prime Primary Realtime Clock</Description><StartTime><Timestamp dt:dt=""int"">0</Timestamp><DateUtc dt:dt=""string"">2023-10-26T19:56:39Z</DateUtc></StartTime><FrequencyChanges><FrequencyChange><Frequency dt:dt=""r8"">10000000</Frequency><Timestamp dt:dt=""r8"">7094437297712</Timestamp><Current dt:dt=""r8"">0</Current><DateUtc dt:dt=""string"">2023-10-26T19:56:39Z</DateUtc></FrequencyChange></FrequencyChanges></Clock>\n";SeminarExperimentWS2324-0306-1;;;;60.033;1.0.0.48;1;Keyboard;Keyboard;Keyboard;-845970411;Full;3.0.3.214;3.0.3.214;10-26-2023;26.10.2023 19:56;21:56:40;3.0.3.214;1;2;2;1;Keyboard;Keyboard;CounterBalanceProc;CounterbalanceList;1;;Keyboard;;;;;;;;1;2;1;TrainProcFlank;PreList;6;6;;TrainFlankerProc80;TrainListFlankerPre80;;;;;;;;;;;;1;1;1;;;;;;;4;4;white;1;{BACKSLASH};;S;;;;;;;2;1;4;;TrialProc;FlankerList80;50%;;;;;;;;;;S;1;{BACKSLASH};Keyboard;{BACKSLASH};402;54
SeminarExperimentWS2324;306;1;"<?xml version=""1.0""?>\n<Clock xmlns:dt=""urn:schemas-microsoft-com:datatypes""><Description dt:dt=""string"">E-Prime Primary Realtime Clock</Description><StartTime><Timestamp dt:dt=""int"">0</Timestamp><DateUtc dt:dt=""string"">2023-10-26T19:56:39Z</DateUtc></StartTime><FrequencyChanges><FrequencyChange><Frequency dt:dt=""r8"">10000000</Frequency><Timestamp dt:dt=""r8"">7094437297712</Timestamp><Current dt:dt=""r8"">0</Current><DateUtc dt:dt=""string"">2023-10-26T19:56:39Z</DateUtc></FrequencyChange></FrequencyChanges></Clock>\n";SeminarExperimentWS2324-0306-1;;;;60.033;1.0.0.48;1;Keyboard;Keyboard;Keyboard;-845970411;Full;3.0.3.214;3.0.3.214;10-26-2023;26.10.2023 19:56;21:56:40;3.0.3.214;1;2;2;1;Keyboard;Keyboard;CounterBalanceProc;CounterbalanceList;1;;Keyboard;;;;;;;;1;2;1;TrainProcFlank;PreList;6;6;;TrainFlankerProc80;TrainListFlankerPre80;;;;;;;;;;;;1;1;1;;;;;;;5;5;white;-1;{BACKSLASH};;H;;;;;;;6;1;5;;TrialProc;FlankerList80;50%;;;;;;;;;;S;1;{BACKSLASH};Keyboard;{BACKSLASH};440;55
SeminarExperimentWS2324;306;1;"<?xml version=""1.0""?>\n<Clock xmlns:dt=""urn:schemas-microsoft-com:datatypes""><Description dt:dt=""string"">E-Prime Primary Realtime Clock</Description><StartTime><Timestamp dt:dt=""int"">0</Timestamp><DateUtc dt:dt=""string"">2023-10-26T19:56:39Z</DateUtc></StartTime><FrequencyChanges><FrequencyChange><Frequency dt:dt=""r8"">10000000</Frequency><Timestamp dt:dt=""r8"">7094437297712</Timestamp><Current dt:dt=""r8"">0</Current><DateUtc dt:dt=""string"">2023-10-26T19:56:39Z</DateUtc></FrequencyChange></FrequencyChanges></Clock>\n";SeminarExperimentWS2324-0306-1;;;;60.033;1.0.0.48;1;Keyboard;Keyboard;Keyboard;-845970411;Full;3.0.3.214;3.0.3.214;10-26-2023;26.10.2023 19:56;21:56:40;3.0.3.214;1;2;2;1;Keyboard;Keyboard;CounterBalanceProc;CounterbalanceList;1;;Keyboard;;;;;;;;1;2;1;TrainProcFlank;PreList;6;6;;TrainFlankerProc80;TrainListFlankerPre80;;;;;;;;;;;;1;1;1;;;;;;;6;6;white;-1;{BACKSLASH};;H;;;;;;;4;1;6;;TrialProc;FlankerList80;50%;;;;;;;;;;S;1;{BACKSLASH};Keyboard;{BACKSLASH};433;56
SeminarExperimentWS2324;306;1;"<?xml version=""1.0""?>\n<Clock xmlns:dt=""urn:schemas-microsoft-com:datatypes""><Description dt:dt=""string"">E-Prime Primary Realtime Clock</Description><StartTime><Timestamp dt:dt=""int"">0</Timestamp><DateUtc dt:dt=""string"">2023-10-26T19:56:39Z</DateUtc></StartTime><FrequencyChanges><FrequencyChange><Frequency dt:dt=""r8"">10000000</Frequency><Timestamp dt:dt=""r8"">7094437297712</Timestamp><Current dt:dt=""r8"">0</Current><DateUtc dt:dt=""string"">2023-10-26T19:56:39Z</DateUtc></FrequencyChange></FrequencyChanges></Clock>\n";SeminarExperimentWS2324-0306-1;;;;60.033;1.0.0.48;1;Keyboard;Keyboard;Keyboard;-845970411;Full;3.0.3.214;3.0.3.214;10-26-2023;26.10.2023 19:56;21:56:40;3.0.3.214;1;2;2;1;Keyboard;Keyboard;CounterBalanceProc;CounterbalanceList;1;;Keyboard;;;;;;;;1;2;1;TrainProcFlank;PreList;6;6;;TrainFlankerProc80;TrainListFlankerPre80;;;;;;;;;;;;1;1;1;;;;;;;7;7;white;-1;a;;S;;;;;;;9;1;7;;TrialProc;FlankerList80;50%;;;;;;;;;;H;1;a;Keyboard;a;484;57
SeminarExperimentWS2324;306;1;"<?xml version=""1.0""?>\n<Clock xmlns:dt=""urn:schemas-microsoft-com:datatypes""><Description dt:dt=""string"">E-Prime Primary Realtime Clock</Description><StartTime><Timestamp dt:dt=""int"">0</Timestamp><DateUtc dt:dt=""string"">2023-10-26T19:56:39Z</DateUtc></StartTime><FrequencyChanges><FrequencyChange><Frequency dt:dt=""r8"">10000000</Frequency><Timestamp dt:dt=""r8"">7094437297712</Timestamp><Current dt:dt=""r8"">0</Current><DateUtc dt:dt=""string"">2023-10-26T19:56:39Z</DateUtc></FrequencyChange></FrequencyChanges></Clock>\n";SeminarExperimentWS2324-0306-1;;;;60.033;1.0.0.48;1;Keyboard;Keyboard;Keyboard;-845970411;Full;3.0.3.214;3.0.3.214;10-26-2023;26.10.2023 19:56;21:56:40;3.0.3.214;1;2;2;1;Keyboard;Keyboard;CounterBalanceProc;CounterbalanceList;1;;Keyboard;;;;;;;;1;2;1;TrainProcFlank;PreList;6;6;;TrainFlankerProc80;TrainListFlankerPre80;;;;;;;;;;;;1;1;1;;;;;;;8;8;white;-1;a;;S;;;;;;;3;1;8;;TrialProc;FlankerList80;50%;;;;;;;;;;H;1;a;Keyboard;a;499;58
SeminarExperimentWS2324;306;1;"<?xml version=""1.0""?>\n<Clock xmlns:dt=""urn:schemas-microsoft-com:datatypes""><Description dt:dt=""string"">E-Prime Primary Realtime Clock</Description><StartTime><Timestamp dt:dt=""int"">0</Timestamp><DateUtc dt:dt=""string"">2023-10-26T19:56:39Z</DateUtc></StartTime><FrequencyChanges><FrequencyChange><Frequency dt:dt=""r8"">10000000</Frequency><Timestamp dt:dt=""r8"">7094437297712</Timestamp><Current dt:dt=""r8"">0</Current><DateUtc dt:dt=""string"">2023-10-26T19:56:39Z</DateUtc></FrequencyChange></FrequencyChanges></Clock>\n";SeminarExperimentWS2324-0306-1;;;;60.033;1.0.0.48;1;Keyboard;Keyboard;Keyboard;-845970411;Full;3.0.3.214;3.0.3.214;10-26-2023;26.10.2023 19:56;21:56:40;3.0.3.214;1;2;2;1;Keyboard;Keyboard;CounterBalanceProc;CounterbalanceList;1;;Keyboard;;;;;;;;1;2;1;TrainProcFlank;PreList;6;6;;TrainFlankerProc80;TrainListFlankerPre80;;;;;;;;;;;;1;1;1;;;;;;;9;9;white;-1;a;;S;;;;;;;7;1;9;;TrialProc;FlankerList80;50%;;;;;;;;;;H;1;a;Keyboard;a;492;59
SeminarExperimentWS2324;306;1;"<?xml version=""1.0""?>\n<Clock xmlns:dt=""urn:schemas-microsoft-com:datatypes""><Description dt:dt=""string"">E-Prime Primary Realtime Clock</Description><StartTime><Timestamp dt:dt=""int"">0</Timestamp><DateUtc dt:dt=""string"">2023-10-26T19:56:39Z</DateUtc></StartTime><FrequencyChanges><FrequencyChange><Frequency dt:dt=""r8"">10000000</Frequency><Timestamp dt:dt=""r8"">7094437297712</Timestamp><Current dt:dt=""r8"">0</Current><DateUtc dt:dt=""string"">2023-10-26T19:56:39Z</DateUtc></FrequencyChange></FrequencyChanges></Clock>\n";SeminarExperimentWS2324-0306-1;;;;60.033;1.0.0.48;1;Keyboard;Keyboard;Keyboard;-845970411;Full;3.0.3.214;3.0.3.214;10-26-2023;26.10.2023 19:56;21:56:40;3.0.3.214;1;2;2;1;Keyboard;Keyboard;CounterBalanceProc;CounterbalanceList;1;;Keyboard;;;;;;;;1;2;1;TrainProcFlank;PreList;6;6;;TrainFlankerProc80;TrainListFlankerPre80;;;;;;;;;;;;1;1;1;;;;;;;10;10;white;-1;{BACKSLASH};Fehler!;H;;;;;;;10;1;10;;TrialProc;FlankerList80;50%;;;;;;;;;;S;0;{BACKSLASH};Keyboard;a;421;60
SeminarExperimentWS2324;306;1;"<?xml version=""1.0""?>\n<Clock xmlns:dt=""urn:schemas-microsoft-com:datatypes""><Description dt:dt=""string"">E-Prime Primary Realtime Clock</Description><StartTime><Timestamp dt:dt=""int"">0</Timestamp><DateUtc dt:dt=""string"">2023-10-26T19:56:39Z</DateUtc></StartTime><FrequencyChanges><FrequencyChange><Frequency dt:dt=""r8"">10000000</Frequency><Timestamp dt:dt=""r8"">7094437297712</Timestamp><Current dt:dt=""r8"">0</Current><DateUtc dt:dt=""string"">2023-10-26T19:56:39Z</DateUtc></FrequencyChange></FrequencyChanges></Clock>\n";SeminarExperimentWS2324-0306-1;;;;60.033;1.0.0.48;1;Keyboard;Keyboard;Keyboard;-845970411;Full;3.0.3.214;3.0.3.214;10-26-2023;26.10.2023 19:56;21:56:40;3.0.3.214;1;2;2;1;Keyboard;Keyboard;CounterBalanceProc;CounterbalanceList;1;;Keyboard;;;;;;;;1;2;1;TrainProcFlank;PreList;7;7;;TrainFlankerProc80;TrainListFlankerPre80;;;;;;;;;;;;1;1;2;;;;;;;1;1;white;-1;{BACKSLASH};;H;;;;;;;10;2;11;;TrialProc;FlankerList80;50%;;;;;;;;;;S;1;{BACKSLASH};Keyboard;{BACKSLASH};632;61
SeminarExperimentWS2324;306;1;"<?xml version=""1.0""?>\n<Clock xmlns:dt=""urn:schemas-microsoft-com:datatypes""><Description dt:dt=""string"">E-Prime Primary Realtime Clock</Description><StartTime><Timestamp dt:dt=""int"">0</Timestamp><DateUtc dt:dt=""string"">2023-10-26T19:56:39Z</DateUtc></StartTime><FrequencyChanges><FrequencyChange><Frequency dt:dt=""r8"">10000000</Frequency><Timestamp dt:dt=""r8"">7094437297712</Timestamp><Current dt:dt=""r8"">0</Current><DateUtc dt:dt=""string"">2023-10-26T19:56:39Z</DateUtc></FrequencyChange></FrequencyChanges></Clock>\n";SeminarExperimentWS2324-0306-1;;;;60.033;1.0.0.48;1;Keyboard;Keyboard;Keyboard;-845970411;Full;3.0.3.214;3.0.3.214;10-26-2023;26.10.2023 19:56;21:56:40;3.0.3.214;1;2;2;1;Keyboard;Keyboard;CounterBalanceProc;CounterbalanceList;1;;Keyboard;;;;;;;;1;2;1;TrainProcFlank;PreList;7;7;;TrainFlankerProc80;TrainListFlankerPre80;;;;;;;;;;;;1;1;2;;;;;;;2;2;white;1;a;;H;;;;;;;1;2;12;;TrialProc;FlankerList80;50%;;;;;;;;;;H;1;a;Keyboard;a;465;62
SeminarExperimentWS2324;306;1;"<?xml version=""1.0""?>\n<Clock xmlns:dt=""urn:schemas-microsoft-com:datatypes""><Description dt:dt=""string"">E-Prime Primary Realtime Clock</Description><StartTime><Timestamp dt:dt=""int"">0</Timestamp><DateUtc dt:dt=""string"">2023-10-26T19:56:39Z</DateUtc></StartTime><FrequencyChanges><FrequencyChange><Frequency dt:dt=""r8"">10000000</Frequency><Timestamp dt:dt=""r8"">7094437297712</Timestamp><Current dt:dt=""r8"">0</Current><DateUtc dt:dt=""string"">2023-10-26T19:56:39Z</DateUtc></FrequencyChange></FrequencyChanges></Clock>\n";SeminarExperimentWS2324-0306-1;;;;60.033;1.0.0.48;1;Keyboard;Keyboard;Keyboard;-845970411;Full;3.0.3.214;3.0.3.214;10-26-2023;26.10.2023 19:56;21:56:40;3.0.3.214;1;2;2;1;Keyboard;Keyboard;CounterBalanceProc;CounterbalanceList;1;;Keyboard;;;;;;;;1;2;1;TrainProcFlank;PreList;7;7;;TrainFlankerProc80;TrainListFlankerPre80;;;;;;;;;;;;1;1;2;;;;;;;3;3;white;-1;{BACKSLASH};;H;;;;;;;8;2;13;;TrialProc;FlankerList80;50%;;;;;;;;;;S;1;{BACKSLASH};Keyboard;{BACKSLASH};619;63
SeminarExperimentWS2324;306;1;"<?xml version=""1.0""?>\n<Clock xmlns:dt=""urn:schemas-microsoft-com:datatypes""><Description dt:dt=""string"">E-Prime Primary Realtime Clock</Description><StartTime><Timestamp dt:dt=""int"">0</Timestamp><DateUtc dt:dt=""string"">2023-10-26T19:56:39Z</DateUtc></StartTime><FrequencyChanges><FrequencyChange><Frequency dt:dt=""r8"">10000000</Frequency><Timestamp dt:dt=""r8"">7094437297712</Timestamp><Current dt:dt=""r8"">0</Current><DateUtc dt:dt=""string"">2023-10-26T19:56:39Z</DateUtc></FrequencyChange></FrequencyChanges></Clock>\n";SeminarExperimentWS2324-0306-1;;;;60.033;1.0.0.48;1;Keyboard;Keyboard;Keyboard;-845970411;Full;3.0.3.214;3.0.3.214;10-26-2023;26.10.2023 19:56;21:56:40;3.0.3.214;1;2;2;1;Keyboard;Keyboard;CounterBalanceProc;CounterbalanceList;1;;Keyboard;;;;;;;;1;2;1;TrainProcFlank;PreList;7;7;;TrainFlankerProc80;TrainListFlankerPre80;;;;;;;;;;;;1;1;2;;;;;;;4;4;white;-1;{BACKSLASH};;H;;;;;;;6;2;14;;TrialProc;FlankerList80;50%;;;;;;;;;;S;1;{BACKSLASH};Keyboard;{BACKSLASH};491;64
SeminarExperimentWS2324;306;1;"<?xml version=""1.0""?>\n<Clock xmlns:dt=""urn:schemas-microsoft-com:datatypes""><Description dt:dt=""string"">E-Prime Primary Realtime Clock</Description><StartTime><Timestamp dt:dt=""int"">0</Timestamp><DateUtc dt:dt=""string"">2023-10-26T19:56:39Z</DateUtc></StartTime><FrequencyChanges><FrequencyChange><Frequency dt:dt=""r8"">10000000</Frequency><Timestamp dt:dt=""r8"">7094437297712</Timestamp><Current dt:dt=""r8"">0</Current><DateUtc dt:dt=""string"">2023-10-26T19:56:39Z</DateUtc></FrequencyChange></FrequencyChanges></Clock>\n";SeminarExperimentWS2324-0306-1;;;;60.033;1.0.0.48;1;Keyboard;Keyboard;Keyboard;-845970411;Full;3.0.3.214;3.0.3.214;10-26-2023;26.10.2023 19:56;21:56:40;3.0.3.214;1;2;2;1;Keyboard;Keyboard;CounterBalanceProc;CounterbalanceList;1;;Keyboard;;;;;;;;1;2;1;TrainProcFlank;PreList;7;7;;TrainFlankerProc80;TrainListFlankerPre80;;;;;;;;;;;;1;1;2;;;;;;;5;5;white;-1;a;;S;;;;;;;7;2;15;;TrialProc;FlankerList80;50%;;;;;;;;;;H;1;a;Keyboard;a;510;65
SeminarExperimentWS2324;306;1;"<?xml version=""1.0""?>\n<Clock xmlns:dt=""urn:schemas-microsoft-com:datatypes""><Description dt:dt=""string"">E-Prime Primary Realtime Clock</Description><StartTime><Timestamp dt:dt=""int"">0</Timestamp><DateUtc dt:dt=""string"">2023-10-26T19:56:39Z</DateUtc></StartTime><FrequencyChanges><FrequencyChange><Frequency dt:dt=""r8"">10000000</Frequency><Timestamp dt:dt=""r8"">7094437297712</Timestamp><Current dt:dt=""r8"">0</Current><DateUtc dt:dt=""string"">2023-10-26T19:56:39Z</DateUtc></FrequencyChange></FrequencyChanges></Clock>\n";SeminarExperimentWS2324-0306-1;;;;60.033;1.0.0.48;1;Keyboard;Keyboard;Keyboard;-845970411;Full;3.0.3.214;3.0.3.214;10-26-2023;26.10.2023 19:56;21:56:40;3.0.3.214;1;2;2;1;Keyboard;Keyboard;CounterBalanceProc;CounterbalanceList;1;;Keyboard;;;;;;;;1;2;1;TrainProcFlank;PreList;7;7;;TrainFlankerProc80;TrainListFlankerPre80;;;;;;;;;;;;1;1;2;;;;;;;6;6;white;-1;{BACKSLASH};;H;;;;;;;4;2;16;;TrialProc;FlankerList80;50%;;;;;;;;;;S;1;{BACKSLASH};Keyboard;{BACKSLASH};427;66
SeminarExperimentWS2324;306;1;"<?xml version=""1.0""?>\n<Clock xmlns:dt=""urn:schemas-microsoft-com:datatypes""><Description dt:dt=""string"">E-Prime Primary Realtime Clock</Description><StartTime><Timestamp dt:dt=""int"">0</Timestamp><DateUtc dt:dt=""string"">2023-10-26T19:56:39Z</DateUtc></StartTime><FrequencyChanges><FrequencyChange><Frequency dt:dt=""r8"">10000000</Frequency><Timestamp dt:dt=""r8"">7094437297712</Timestamp><Current dt:dt=""r8"">0</Current><DateUtc dt:dt=""string"">2023-10-26T19:56:39Z</DateUtc></FrequencyChange></FrequencyChanges></Clock>\n";SeminarExperimentWS2324-0306-1;;;;60.033;1.0.0.48;1;Keyboard;Keyboard;Keyboard;-845970411;Full;3.0.3.214;3.0.3.214;10-26-2023;26.10.2023 19:56;21:56:40;3.0.3.214;1;2;2;1;Keyboard;Keyboard;CounterBalanceProc;CounterbalanceList;1;;Keyboard;;;;;;;;1;2;1;TrainProcFlank;PreList;7;7;;TrainFlankerProc80;TrainListFlankerPre80;;;;;;;;;;;;1;1;2;;;;;;;7;7;white;-1;a;;S;;;;;;;5;2;17;;TrialProc;FlankerList80;50%;;;;;;;;;;H;1;a;Keyboard;a;517;67
SeminarExperimentWS2324;306;1;"<?xml version=""1.0""?>\n<Clock xmlns:dt=""urn:schemas-microsoft-com:datatypes""><Description dt:dt=""string"">E-Prime Primary Realtime Clock</Description><StartTime><Timestamp dt:dt=""int"">0</Timestamp><DateUtc dt:dt=""string"">2023-10-26T19:56:39Z</DateUtc></StartTime><FrequencyChanges><FrequencyChange><Frequency dt:dt=""r8"">10000000</Frequency><Timestamp dt:dt=""r8"">7094437297712</Timestamp><Current dt:dt=""r8"">0</Current><DateUtc dt:dt=""string"">2023-10-26T19:56:39Z</DateUtc></FrequencyChange></FrequencyChanges></Clock>\n";SeminarExperimentWS2324-0306-1;;;;60.033;1.0.0.48;1;Keyboard;Keyboard;Keyboard;-845970411;Full;3.0.3.214;3.0.3.214;10-26-2023;26.10.2023 19:56;21:56:40;3.0.3.214;1;2;2;1;Keyboard;Keyboard;CounterBalanceProc;CounterbalanceList;1;;Keyboard;;;;;;;;1;2;1;TrainProcFlank;PreList;7;7;;TrainFlankerProc80;TrainListFlankerPre80;;;;;;;;;;;;1;1;2;;;;;;;8;8;white;1;{BACKSLASH};;S;;;;;;;2;2;18;;TrialProc;FlankerList80;50%;;;;;;;;;;S;1;{BACKSLASH};Keyboard;{BACKSLASH};500;68
SeminarExperimentWS2324;306;1;"<?xml version=""1.0""?>\n<Clock xmlns:dt=""urn:schemas-microsoft-com:datatypes""><Description dt:dt=""string"">E-Prime Primary Realtime Clock</Description><StartTime><Timestamp dt:dt=""int"">0</Timestamp><DateUtc dt:dt=""string"">2023-10-26T19:56:39Z</DateUtc></StartTime><FrequencyChanges><FrequencyChange><Frequency dt:dt=""r8"">10000000</Frequency><Timestamp dt:dt=""r8"">7094437297712</Timestamp><Current dt:dt=""r8"">0</Current><DateUtc dt:dt=""string"">2023-10-26T19:56:39Z</DateUtc></FrequencyChange></FrequencyChanges></Clock>\n";SeminarExperimentWS2324-0306-1;;;;60.033;1.0.0.48;1;Keyboard;Keyboard;Keyboard;-845970411;Full;3.0.3.214;3.0.3.214;10-26-2023;26.10.2023 19:56;21:56:40;3.0.3.214;1;2;2;1;Keyboard;Keyboard;CounterBalanceProc;CounterbalanceList;1;;Keyboard;;;;;;;;1;2;1;TrainProcFlank;PreList;7;7;;TrainFlankerProc80;TrainListFlankerPre80;;;;;;;;;;;;1;1;2;;;;;;;9;9;white;-1;a;;S;;;;;;;3;2;19;;TrialProc;FlankerList80;50%;;;;;;;;;;H;1;a;Keyboard;a;594;69
SeminarExperimentWS2324;306;1;"<?xml version=""1.0""?>\n<Clock xmlns:dt=""urn:schemas-microsoft-com:datatypes""><Description dt:dt=""string"">E-Prime Primary Realtime Clock</Description><StartTime><Timestamp dt:dt=""int"">0</Timestamp><DateUtc dt:dt=""string"">2023-10-26T19:56:39Z</DateUtc></StartTime><FrequencyChanges><FrequencyChange><Frequency dt:dt=""r8"">10000000</Frequency><Timestamp dt:dt=""r8"">7094437297712</Timestamp><Current dt:dt=""r8"">0</Current><DateUtc dt:dt=""string"">2023-10-26T19:56:39Z</DateUtc></FrequencyChange></FrequencyChanges></Clock>\n";SeminarExperimentWS2324-0306-1;;;;60.033;1.0.0.48;1;Keyboard;Keyboard;Keyboard;-845970411;Full;3.0.3.214;3.0.3.214;10-26-2023;26.10.2023 19:56;21:56:40;3.0.3.214;1;2;2;1;Keyboard;Keyboard;CounterBalanceProc;CounterbalanceList;1;;Keyboard;;;;;;;;1;2;1;TrainProcFlank;PreList;7;7;;TrainFlankerProc80;TrainListFlankerPre80;;;;;;;;;;;;1;1;2;;;;;;;10;10;white;-1;a;;S;;;;;;;9;2;20;;TrialProc;FlankerList80;50%;;;;;;;;;;H;1;a;Keyboard;a;559;70
SeminarExperimentWS2324;306;1;"<?xml version=""1.0""?>\n<Clock xmlns:dt=""urn:schemas-microsoft-com:datatypes""><Description dt:dt=""string"">E-Prime Primary Realtime Clock</Description><StartTime><Timestamp dt:dt=""int"">0</Timestamp><DateUtc dt:dt=""string"">2023-10-26T19:56:39Z</DateUtc></StartTime><FrequencyChanges><FrequencyChange><Frequency dt:dt=""r8"">10000000</Frequency><Timestamp dt:dt=""r8"">7094437297712</Timestamp><Current dt:dt=""r8"">0</Current><DateUtc dt:dt=""string"">2023-10-26T19:56:39Z</DateUtc></FrequencyChange></FrequencyChanges></Clock>\n";SeminarExperimentWS2324-0306-1;;;;60.033;1.0.0.48;1;Keyboard;Keyboard;Keyboard;-845970411;Full;3.0.3.214;3.0.3.214;10-26-2023;26.10.2023 19:56;21:56:40;3.0.3.214;1;2;2;1;Keyboard;Keyboard;CounterBalanceProc;CounterbalanceList;1;;Keyboard;;;;;;;;1;2;1;TrainProcFlank;PreList;8;8;;TrainFlankerProc80;TrainListFlankerPre80;;;;;;;;;;;;1;1;3;;;;;;;1;1;white;-1;a;;S;;;;;;;9;3;21;;TrialProc;FlankerList80;50%;;;;;;;;;;H;1;a;Keyboard;a;546;71
SeminarExperimentWS2324;306;1;"<?xml version=""1.0""?>\n<Clock xmlns:dt=""urn:schemas-microsoft-com:datatypes""><Description dt:dt=""string"">E-Prime Primary Realtime Clock</Description><StartTime><Timestamp dt:dt=""int"">0</Timestamp><DateUtc dt:dt=""string"">2023-10-26T19:56:39Z</DateUtc></StartTime><FrequencyChanges><FrequencyChange><Frequency dt:dt=""r8"">10000000</Frequency><Timestamp dt:dt=""r8"">7094437297712</Timestamp><Current dt:dt=""r8"">0</Current><DateUtc dt:dt=""string"">2023-10-26T19:56:39Z</DateUtc></FrequencyChange></FrequencyChanges></Clock>\n";SeminarExperimentWS2324-0306-1;;;;60.033;1.0.0.48;1;Keyboard;Keyboard;Keyboard;-845970411;Full;3.0.3.214;3.0.3.214;10-26-2023;26.10.2023 19:56;21:56:40;3.0.3.214;1;2;2;1;Keyboard;Keyboard;CounterBalanceProc;CounterbalanceList;1;;Keyboard;;;;;;;;1;2;1;TrainProcFlank;PreList;8;8;;TrainFlankerProc80;TrainListFlankerPre80;;;;;;;;;;;;1;1;3;;;;;;;2;2;white;-1;a;;S;;;;;;;5;3;22;;TrialProc;FlankerList80;50%;;;;;;;;;;H;1;a;Keyboard;a;597;72
SeminarExperimentWS2324;306;1;"<?xml version=""1.0""?>\n<Clock xmlns:dt=""urn:schemas-microsoft-com:datatypes""><Description dt:dt=""string"">E-Prime Primary Realtime Clock</Description><StartTime><Timestamp dt:dt=""int"">0</Timestamp><DateUtc dt:dt=""string"">2023-10-26T19:56:39Z</DateUtc></StartTime><FrequencyChanges><FrequencyChange><Frequency dt:dt=""r8"">10000000</Frequency><Timestamp dt:dt=""r8"">7094437297712</Timestamp><Current dt:dt=""r8"">0</Current><DateUtc dt:dt=""string"">2023-10-26T19:56:39Z</DateUtc></FrequencyChange></FrequencyChanges></Clock>\n";SeminarExperimentWS2324-0306-1;;;;60.033;1.0.0.48;1;Keyboard;Keyboard;Keyboard;-845970411;Full;3.0.3.214;3.0.3.214;10-26-2023;26.10.2023 19:56;21:56:40;3.0.3.214;1;2;2;1;Keyboard;Keyboard;CounterBalanceProc;CounterbalanceList;1;;Keyboard;;;;;;;;1;2;1;TrainProcFlank;PreList;8;8;;TrainFlankerProc80;TrainListFlankerPre80;;;;;;;;;;;;1;1;3;;;;;;;3;3;white;-1;{BACKSLASH};;H;;;;;;;6;3;23;;TrialProc;FlankerList80;50%;;;;;;;;;;S;1;{BACKSLASH};Keyboard;{BACKSLASH};432;73
SeminarExperimentWS2324;306;1;"<?xml version=""1.0""?>\n<Clock xmlns:dt=""urn:schemas-microsoft-com:datatypes""><Description dt:dt=""string"">E-Prime Primary Realtime Clock</Description><StartTime><Timestamp dt:dt=""int"">0</Timestamp><DateUtc dt:dt=""string"">2023-10-26T19:56:39Z</DateUtc></StartTime><FrequencyChanges><FrequencyChange><Frequency dt:dt=""r8"">10000000</Frequency><Timestamp dt:dt=""r8"">7094437297712</Timestamp><Current dt:dt=""r8"">0</Current><DateUtc dt:dt=""string"">2023-10-26T19:56:39Z</DateUtc></FrequencyChange></FrequencyChanges></Clock>\n";SeminarExperimentWS2324-0306-1;;;;60.033;1.0.0.48;1;Keyboard;Keyboard;Keyboard;-845970411;Full;3.0.3.214;3.0.3.214;10-26-2023;26.10.2023 19:56;21:56:40;3.0.3.214;1;2;2;1;Keyboard;Keyboard;CounterBalanceProc;CounterbalanceList;1;;Keyboard;;;;;;;;1;2;1;TrainProcFlank;PreList;8;8;;TrainFlankerProc80;TrainListFlankerPre80;;;;;;;;;;;;1;1;3;;;;;;;4;4;white;-1;{BACKSLASH};;H;;;;;;;4;3;24;;TrialProc;FlankerList80;50%;;;;;;;;;;S;1;{BACKSLASH};Keyboard;{BACKSLASH};496;74
SeminarExperimentWS2324;306;1;"<?xml version=""1.0""?>\n<Clock xmlns:dt=""urn:schemas-microsoft-com:datatypes""><Description dt:dt=""string"">E-Prime Primary Realtime Clock</Description><StartTime><Timestamp dt:dt=""int"">0</Timestamp><DateUtc dt:dt=""string"">2023-10-26T19:56:39Z</DateUtc></StartTime><FrequencyChanges><FrequencyChange><Frequency dt:dt=""r8"">10000000</Frequency><Timestamp dt:dt=""r8"">7094437297712</Timestamp><Current dt:dt=""r8"">0</Current><DateUtc dt:dt=""string"">2023-10-26T19:56:39Z</DateUtc></FrequencyChange></FrequencyChanges></Clock>\n";SeminarExperimentWS2324-0306-1;;;;60.033;1.0.0.48;1;Keyboard;Keyboard;Keyboard;-845970411;Full;3.0.3.214;3.0.3.214;10-26-2023;26.10.2023 19:56;21:56:40;3.0.3.214;1;2;2;1;Keyboard;Keyboard;CounterBalanceProc;CounterbalanceList;1;;Keyboard;;;;;;;;1;2;1;TrainProcFlank;PreList;8;8;;TrainFlankerProc80;TrainListFlankerPre80;;;;;;;;;;;;1;1;3;;;;;;;5;5;white;1;a;;H;;;;;;;1;3;25;;TrialProc;FlankerList80;50%;;;;;;;;;;H;1;a;Keyboard;a;343;75
SeminarExperimentWS2324;306;1;"<?xml version=""1.0""?>\n<Clock xmlns:dt=""urn:schemas-microsoft-com:datatypes""><Description dt:dt=""string"">E-Prime Primary Realtime Clock</Description><StartTime><Timestamp dt:dt=""int"">0</Timestamp><DateUtc dt:dt=""string"">2023-10-26T19:56:39Z</DateUtc></StartTime><FrequencyChanges><FrequencyChange><Frequency dt:dt=""r8"">10000000</Frequency><Timestamp dt:dt=""r8"">7094437297712</Timestamp><Current dt:dt=""r8"">0</Current><DateUtc dt:dt=""string"">2023-10-26T19:56:39Z</DateUtc></FrequencyChange></FrequencyChanges></Clock>\n";SeminarExperimentWS2324-0306-1;;;;60.033;1.0.0.48;1;Keyboard;Keyboard;Keyboard;-845970411;Full;3.0.3.214;3.0.3.214;10-26-2023;26.10.2023 19:56;21:56:40;3.0.3.214;1;2;2;1;Keyboard;Keyboard;CounterBalanceProc;CounterbalanceList;1;;Keyboard;;;;;;;;1;2;1;TrainProcFlank;PreList;8;8;;TrainFlankerProc80;TrainListFlankerPre80;;;;;;;;;;;;1;1;3;;;;;;;6;6;white;-1;a;;S;;;;;;;3;3;26;;TrialProc;FlankerList80;50%;;;;;;;;;;H;1;a;Keyboard;a;616;76
SeminarExperimentWS2324;306;1;"<?xml version=""1.0""?>\n<Clock xmlns:dt=""urn:schemas-microsoft-com:datatypes""><Description dt:dt=""string"">E-Prime Primary Realtime Clock</Description><StartTime><Timestamp dt:dt=""int"">0</Timestamp><DateUtc dt:dt=""string"">2023-10-26T19:56:39Z</DateUtc></StartTime><FrequencyChanges><FrequencyChange><Frequency dt:dt=""r8"">10000000</Frequency><Timestamp dt:dt=""r8"">7094437297712</Timestamp><Current dt:dt=""r8"">0</Current><DateUtc dt:dt=""string"">2023-10-26T19:56:39Z</DateUtc></FrequencyChange></FrequencyChanges></Clock>\n";SeminarExperimentWS2324-0306-1;;;;60.033;1.0.0.48;1;Keyboard;Keyboard;Keyboard;-845970411;Full;3.0.3.214;3.0.3.214;10-26-2023;26.10.2023 19:56;21:56:40;3.0.3.214;1;2;2;1;Keyboard;Keyboard;CounterBalanceProc;CounterbalanceList;1;;Keyboard;;;;;;;;1;2;1;TrainProcFlank;PreList;8;8;;TrainFlankerProc80;TrainListFlankerPre80;;;;;;;;;;;;1;1;3;;;;;;;7;7;white;-1;{BACKSLASH};;H;;;;;;;8;3;27;;TrialProc;FlankerList80;50%;;;;;;;;;;S;1;{BACKSLASH};Keyboard;{BACKSLASH};568;77
SeminarExperimentWS2324;306;1;"<?xml version=""1.0""?>\n<Clock xmlns:dt=""urn:schemas-microsoft-com:datatypes""><Description dt:dt=""string"">E-Prime Primary Realtime Clock</Description><StartTime><Timestamp dt:dt=""int"">0</Timestamp><DateUtc dt:dt=""string"">2023-10-26T19:56:39Z</DateUtc></StartTime><FrequencyChanges><FrequencyChange><Frequency dt:dt=""r8"">10000000</Frequency><Timestamp dt:dt=""r8"">7094437297712</Timestamp><Current dt:dt=""r8"">0</Current><DateUtc dt:dt=""string"">2023-10-26T19:56:39Z</DateUtc></FrequencyChange></FrequencyChanges></Clock>\n";SeminarExperimentWS2324-0306-1;;;;60.033;1.0.0.48;1;Keyboard;Keyboard;Keyboard;-845970411;Full;3.0.3.214;3.0.3.214;10-26-2023;26.10.2023 19:56;21:56:40;3.0.3.214;1;2;2;1;Keyboard;Keyboard;CounterBalanceProc;CounterbalanceList;1;;Keyboard;;;;;;;;1;2;1;TrainProcFlank;PreList;8;8;;TrainFlankerProc80;TrainListFlankerPre80;;;;;;;;;;;;1;1;3;;;;;;;8;8;white;-1;a;;S;;;;;;;7;3;28;;TrialProc;FlankerList80;50%;;;;;;;;;;H;1;a;Keyboard;a;536;78
SeminarExperimentWS2324;306;1;"<?xml version=""1.0""?>\n<Clock xmlns:dt=""urn:schemas-microsoft-com:datatypes""><Description dt:dt=""string"">E-Prime Primary Realtime Clock</Description><StartTime><Timestamp dt:dt=""int"">0</Timestamp><DateUtc dt:dt=""string"">2023-10-26T19:56:39Z</DateUtc></StartTime><FrequencyChanges><FrequencyChange><Frequency dt:dt=""r8"">10000000</Frequency><Timestamp dt:dt=""r8"">7094437297712</Timestamp><Current dt:dt=""r8"">0</Current><DateUtc dt:dt=""string"">2023-10-26T19:56:39Z</DateUtc></FrequencyChange></FrequencyChanges></Clock>\n";SeminarExperimentWS2324-0306-1;;;;60.033;1.0.0.48;1;Keyboard;Keyboard;Keyboard;-845970411;Full;3.0.3.214;3.0.3.214;10-26-2023;26.10.2023 19:56;21:56:40;3.0.3.214;1;2;2;1;Keyboard;Keyboard;CounterBalanceProc;CounterbalanceList;1;;Keyboard;;;;;;;;1;2;1;TrainProcFlank;PreList;8;8;;TrainFlankerProc80;TrainListFlankerPre80;;;;;;;;;;;;1;1;3;;;;;;;9;9;white;-1;{BACKSLASH};;H;;;;;;;10;3;29;;TrialProc;FlankerList80;50%;;;;;;;;;;S;1;{BACKSLASH};Keyboard;{BACKSLASH};455;79
SeminarExperimentWS2324;306;1;"<?xml version=""1.0""?>\n<Clock xmlns:dt=""urn:schemas-microsoft-com:datatypes""><Description dt:dt=""string"">E-Prime Primary Realtime Clock</Description><StartTime><Timestamp dt:dt=""int"">0</Timestamp><DateUtc dt:dt=""string"">2023-10-26T19:56:39Z</DateUtc></StartTime><FrequencyChanges><FrequencyChange><Frequency dt:dt=""r8"">10000000</Frequency><Timestamp dt:dt=""r8"">7094437297712</Timestamp><Current dt:dt=""r8"">0</Current><DateUtc dt:dt=""string"">2023-10-26T19:56:39Z</DateUtc></FrequencyChange></FrequencyChanges></Clock>\n";SeminarExperimentWS2324-0306-1;;;;60.033;1.0.0.48;1;Keyboard;Keyboard;Keyboard;-845970411;Full;3.0.3.214;3.0.3.214;10-26-2023;26.10.2023 19:56;21:56:40;3.0.3.214;1;2;2;1;Keyboard;Keyboard;CounterBalanceProc;CounterbalanceList;1;;Keyboard;;;;;;;;1;2;1;TrainProcFlank;PreList;8;8;;TrainFlankerProc80;TrainListFlankerPre80;;;;;;;;;;;;1;1;3;;;;;;;10;10;white;1;{BACKSLASH};;S;;;;;;;2;3;30;;TrialProc;FlankerList80;50%;;;;;;;;;;S;1;{BACKSLASH};Keyboard;{BACKSLASH};414;80
SeminarExperimentWS2324;306;1;"<?xml version=""1.0""?>\n<Clock xmlns:dt=""urn:schemas-microsoft-com:datatypes""><Description dt:dt=""string"">E-Prime Primary Realtime Clock</Description><StartTime><Timestamp dt:dt=""int"">0</Timestamp><DateUtc dt:dt=""string"">2023-10-26T19:56:39Z</DateUtc></StartTime><FrequencyChanges><FrequencyChange><Frequency dt:dt=""r8"">10000000</Frequency><Timestamp dt:dt=""r8"">7094437297712</Timestamp><Current dt:dt=""r8"">0</Current><DateUtc dt:dt=""string"">2023-10-26T19:56:39Z</DateUtc></FrequencyChange></FrequencyChanges></Clock>\n";SeminarExperimentWS2324-0306-1;;;;60.033;1.0.0.48;1;Keyboard;Keyboard;Keyboard;-845970411;Full;3.0.3.214;3.0.3.214;10-26-2023;26.10.2023 19:56;21:56:40;3.0.3.214;1;2;2;1;Keyboard;Keyboard;CounterBalanceProc;CounterbalanceList;1;;Keyboard;;;;;;;;1;2;1;TrainProcFlank;PreList;9;9;;TrainFlankerProc80;TrainListFlankerPre80;;;;;;;;;;;;1;1;4;;;;;;;1;1;white;-1;{BACKSLASH};;H;;;;;;;4;4;31;;TrialProc;FlankerList80;50%;;;;;;;;;;S;1;{BACKSLASH};Keyboard;{BACKSLASH};491;81
SeminarExperimentWS2324;306;1;"<?xml version=""1.0""?>\n<Clock xmlns:dt=""urn:schemas-microsoft-com:datatypes""><Description dt:dt=""string"">E-Prime Primary Realtime Clock</Description><StartTime><Timestamp dt:dt=""int"">0</Timestamp><DateUtc dt:dt=""string"">2023-10-26T19:56:39Z</DateUtc></StartTime><FrequencyChanges><FrequencyChange><Frequency dt:dt=""r8"">10000000</Frequency><Timestamp dt:dt=""r8"">7094437297712</Timestamp><Current dt:dt=""r8"">0</Current><DateUtc dt:dt=""string"">2023-10-26T19:56:39Z</DateUtc></FrequencyChange></FrequencyChanges></Clock>\n";SeminarExperimentWS2324-0306-1;;;;60.033;1.0.0.48;1;Keyboard;Keyboard;Keyboard;-845970411;Full;3.0.3.214;3.0.3.214;10-26-2023;26.10.2023 19:56;21:56:40;3.0.3.214;1;2;2;1;Keyboard;Keyboard;CounterBalanceProc;CounterbalanceList;1;;Keyboard;;;;;;;;1;2;1;TrainProcFlank;PreList;9;9;;TrainFlankerProc80;TrainListFlankerPre80;;;;;;;;;;;;1;1;4;;;;;;;2;2;white;-1;a;;S;;;;;;;7;4;32;;TrialProc;FlankerList80;50%;;;;;;;;;;H;1;a;Keyboard;a;500;82
SeminarExperimentWS2324;306;1;"<?xml version=""1.0""?>\n<Clock xmlns:dt=""urn:schemas-microsoft-com:datatypes""><Description dt:dt=""string"">E-Prime Primary Realtime Clock</Description><StartTime><Timestamp dt:dt=""int"">0</Timestamp><DateUtc dt:dt=""string"">2023-10-26T19:56:39Z</DateUtc></StartTime><FrequencyChanges><FrequencyChange><Frequency dt:dt=""r8"">10000000</Frequency><Timestamp dt:dt=""r8"">7094437297712</Timestamp><Current dt:dt=""r8"">0</Current><DateUtc dt:dt=""string"">2023-10-26T19:56:39Z</DateUtc></FrequencyChange></FrequencyChanges></Clock>\n";SeminarExperimentWS2324-0306-1;;;;60.033;1.0.0.48;1;Keyboard;Keyboard;Keyboard;-845970411;Full;3.0.3.214;3.0.3.214;10-26-2023;26.10.2023 19:56;21:56:40;3.0.3.214;1;2;2;1;Keyboard;Keyboard;CounterBalanceProc;CounterbalanceList;1;;Keyboard;;;;;;;;1;2;1;TrainProcFlank;PreList;9;9;;TrainFlankerProc80;TrainListFlankerPre80;;;;;;;;;;;;1;1;4;;;;;;;3;3;white;-1;{BACKSLASH};;H;;;;;;;10;4;33;;TrialProc;FlankerList80;50%;;;;;;;;;;S;1;{BACKSLASH};Keyboard;{BACKSLASH};585;83
SeminarExperimentWS2324;306;1;"<?xml version=""1.0""?>\n<Clock xmlns:dt=""urn:schemas-microsoft-com:datatypes""><Description dt:dt=""string"">E-Prime Primary Realtime Clock</Description><StartTime><Timestamp dt:dt=""int"">0</Timestamp><DateUtc dt:dt=""string"">2023-10-26T19:56:39Z</DateUtc></StartTime><FrequencyChanges><FrequencyChange><Frequency dt:dt=""r8"">10000000</Frequency><Timestamp dt:dt=""r8"">7094437297712</Timestamp><Current dt:dt=""r8"">0</Current><DateUtc dt:dt=""string"">2023-10-26T19:56:39Z</DateUtc></FrequencyChange></FrequencyChanges></Clock>\n";SeminarExperimentWS2324-0306-1;;;;60.033;1.0.0.48;1;Keyboard;Keyboard;Keyboard;-845970411;Full;3.0.3.214;3.0.3.214;10-26-2023;26.10.2023 19:56;21:56:40;3.0.3.214;1;2;2;1;Keyboard;Keyboard;CounterBalanceProc;CounterbalanceList;1;;Keyboard;;;;;;;;1;2;1;TrainProcFlank;PreList;9;9;;TrainFlankerProc80;TrainListFlankerPre80;;;;;;;;;;;;1;1;4;;;;;;;4;4;white;-1;a;;S;;;;;;;9;4;34;;TrialProc;FlankerList80;50%;;;;;;;;;;H;1;a;Keyboard;a;519;84
SeminarExperimentWS2324;306;1;"<?xml version=""1.0""?>\n<Clock xmlns:dt=""urn:schemas-microsoft-com:datatypes""><Description dt:dt=""string"">E-Prime Primary Realtime Clock</Description><StartTime><Timestamp dt:dt=""int"">0</Timestamp><DateUtc dt:dt=""string"">2023-10-26T19:56:39Z</DateUtc></StartTime><FrequencyChanges><FrequencyChange><Frequency dt:dt=""r8"">10000000</Frequency><Timestamp dt:dt=""r8"">7094437297712</Timestamp><Current dt:dt=""r8"">0</Current><DateUtc dt:dt=""string"">2023-10-26T19:56:39Z</DateUtc></FrequencyChange></FrequencyChanges></Clock>\n";SeminarExperimentWS2324-0306-1;;;;60.033;1.0.0.48;1;Keyboard;Keyboard;Keyboard;-845970411;Full;3.0.3.214;3.0.3.214;10-26-2023;26.10.2023 19:56;21:56:40;3.0.3.214;1;2;2;1;Keyboard;Keyboard;CounterBalanceProc;CounterbalanceList;1;;Keyboard;;;;;;;;1;2;1;TrainProcFlank;PreList;9;9;;TrainFlankerProc80;TrainListFlankerPre80;;;;;;;;;;;;1;1;4;;;;;;;5;5;white;1;a;;H;;;;;;;1;4;35;;TrialProc;FlankerList80;50%;;;;;;;;;;H;1;a;Keyboard;a;527;85
SeminarExperimentWS2324;306;1;"<?xml version=""1.0""?>\n<Clock xmlns:dt=""urn:schemas-microsoft-com:datatypes""><Description dt:dt=""string"">E-Prime Primary Realtime Clock</Description><StartTime><Timestamp dt:dt=""int"">0</Timestamp><DateUtc dt:dt=""string"">2023-10-26T19:56:39Z</DateUtc></StartTime><FrequencyChanges><FrequencyChange><Frequency dt:dt=""r8"">10000000</Frequency><Timestamp dt:dt=""r8"">7094437297712</Timestamp><Current dt:dt=""r8"">0</Current><DateUtc dt:dt=""string"">2023-10-26T19:56:39Z</DateUtc></FrequencyChange></FrequencyChanges></Clock>\n";SeminarExperimentWS2324-0306-1;;;;60.033;1.0.0.48;1;Keyboard;Keyboard;Keyboard;-845970411;Full;3.0.3.214;3.0.3.214;10-26-2023;26.10.2023 19:56;21:56:40;3.0.3.214;1;2;2;1;Keyboard;Keyboard;CounterBalanceProc;CounterbalanceList;1;;Keyboard;;;;;;;;1;2;1;TrainProcFlank;PreList;9;9;;TrainFlankerProc80;TrainListFlankerPre80;;;;;;;;;;;;1;1;4;;;;;;;6;6;white;-1;{BACKSLASH};;H;;;;;;;6;4;36;;TrialProc;FlankerList80;50%;;;;;;;;;;S;1;{BACKSLASH};Keyboard;{BACKSLASH};462;86
SeminarExperimentWS2324;306;1;"<?xml version=""1.0""?>\n<Clock xmlns:dt=""urn:schemas-microsoft-com:datatypes""><Description dt:dt=""string"">E-Prime Primary Realtime Clock</Description><StartTime><Timestamp dt:dt=""int"">0</Timestamp><DateUtc dt:dt=""string"">2023-10-26T19:56:39Z</DateUtc></StartTime><FrequencyChanges><FrequencyChange><Frequency dt:dt=""r8"">10000000</Frequency><Timestamp dt:dt=""r8"">7094437297712</Timestamp><Current dt:dt=""r8"">0</Current><DateUtc dt:dt=""string"">2023-10-26T19:56:39Z</DateUtc></FrequencyChange></FrequencyChanges></Clock>\n";SeminarExperimentWS2324-0306-1;;;;60.033;1.0.0.48;1;Keyboard;Keyboard;Keyboard;-845970411;Full;3.0.3.214;3.0.3.214;10-26-2023;26.10.2023 19:56;21:56:40;3.0.3.214;1;2;2;1;Keyboard;Keyboard;CounterBalanceProc;CounterbalanceList;1;;Keyboard;;;;;;;;1;2;1;TrainProcFlank;PreList;9;9;;TrainFlankerProc80;TrainListFlankerPre80;;;;;;;;;;;;1;1;4;;;;;;;7;7;white;-1;a;;S;;;;;;;3;4;37;;TrialProc;FlankerList80;50%;;;;;;;;;;H;1;a;Keyboard;a;563;87
SeminarExperimentWS2324;306;1;"<?xml version=""1.0""?>\n<Clock xmlns:dt=""urn:schemas-microsoft-com:datatypes""><Description dt:dt=""string"">E-Prime Primary Realtime Clock</Description><StartTime><Timestamp dt:dt=""int"">0</Timestamp><DateUtc dt:dt=""string"">2023-10-26T19:56:39Z</DateUtc></StartTime><FrequencyChanges><FrequencyChange><Frequency dt:dt=""r8"">10000000</Frequency><Timestamp dt:dt=""r8"">7094437297712</Timestamp><Current dt:dt=""r8"">0</Current><DateUtc dt:dt=""string"">2023-10-26T19:56:39Z</DateUtc></FrequencyChange></FrequencyChanges></Clock>\n";SeminarExperimentWS2324-0306-1;;;;60.033;1.0.0.48;1;Keyboard;Keyboard;Keyboard;-845970411;Full;3.0.3.214;3.0.3.214;10-26-2023;26.10.2023 19:56;21:56:40;3.0.3.214;1;2;2;1;Keyboard;Keyboard;CounterBalanceProc;CounterbalanceList;1;;Keyboard;;;;;;;;1;2;1;TrainProcFlank;PreList;9;9;;TrainFlankerProc80;TrainListFlankerPre80;;;;;;;;;;;;1;1;4;;;;;;;8;8;white;1;{BACKSLASH};;S;;;;;;;2;4;38;;TrialProc;FlankerList80;50%;;;;;;;;;;S;1;{BACKSLASH};Keyboard;{BACKSLASH};429;88
SeminarExperimentWS2324;306;1;"<?xml version=""1.0""?>\n<Clock xmlns:dt=""urn:schemas-microsoft-com:datatypes""><Description dt:dt=""string"">E-Prime Primary Realtime Clock</Description><StartTime><Timestamp dt:dt=""int"">0</Timestamp><DateUtc dt:dt=""string"">2023-10-26T19:56:39Z</DateUtc></StartTime><FrequencyChanges><FrequencyChange><Frequency dt:dt=""r8"">10000000</Frequency><Timestamp dt:dt=""r8"">7094437297712</Timestamp><Current dt:dt=""r8"">0</Current><DateUtc dt:dt=""string"">2023-10-26T19:56:39Z</DateUtc></FrequencyChange></FrequencyChanges></Clock>\n";SeminarExperimentWS2324-0306-1;;;;60.033;1.0.0.48;1;Keyboard;Keyboard;Keyboard;-845970411;Full;3.0.3.214;3.0.3.214;10-26-2023;26.10.2023 19:56;21:56:40;3.0.3.214;1;2;2;1;Keyboard;Keyboard;CounterBalanceProc;CounterbalanceList;1;;Keyboard;;;;;;;;1;2;1;TrainProcFlank;PreList;9;9;;TrainFlankerProc80;TrainListFlankerPre80;;;;;;;;;;;;1;1;4;;;;;;;9;9;white;-1;a;;S;;;;;;;5;4;39;;TrialProc;FlankerList80;50%;;;;;;;;;;H;1;a;Keyboard;a;462;89
SeminarExperimentWS2324;306;1;"<?xml version=""1.0""?>\n<Clock xmlns:dt=""urn:schemas-microsoft-com:datatypes""><Description dt:dt=""string"">E-Prime Primary Realtime Clock</Description><StartTime><Timestamp dt:dt=""int"">0</Timestamp><DateUtc dt:dt=""string"">2023-10-26T19:56:39Z</DateUtc></StartTime><FrequencyChanges><FrequencyChange><Frequency dt:dt=""r8"">10000000</Frequency><Timestamp dt:dt=""r8"">7094437297712</Timestamp><Current dt:dt=""r8"">0</Current><DateUtc dt:dt=""string"">2023-10-26T19:56:39Z</DateUtc></FrequencyChange></FrequencyChanges></Clock>\n";SeminarExperimentWS2324-0306-1;;;;60.033;1.0.0.48;1;Keyboard;Keyboard;Keyboard;-845970411;Full;3.0.3.214;3.0.3.214;10-26-2023;26.10.2023 19:56;21:56:40;3.0.3.214;1;2;2;1;Keyboard;Keyboard;CounterBalanceProc;CounterbalanceList;1;;Keyboard;;;;;;;;1;2;1;TrainProcFlank;PreList;9;9;;TrainFlankerProc80;TrainListFlankerPre80;;;;;;;;;;;;1;1;4;;;;;;;10;10;white;-1;{BACKSLASH};;H;;;;;;;8;4;40;;TrialProc;FlankerList80;50%;;;;;;;;;;S;1;{BACKSLASH};Keyboard;{BACKSLASH};368;90
SeminarExperimentWS2324;306;1;"<?xml version=""1.0""?>\n<Clock xmlns:dt=""urn:schemas-microsoft-com:datatypes""><Description dt:dt=""string"">E-Prime Primary Realtime Clock</Description><StartTime><Timestamp dt:dt=""int"">0</Timestamp><DateUtc dt:dt=""string"">2023-10-26T19:56:39Z</DateUtc></StartTime><FrequencyChanges><FrequencyChange><Frequency dt:dt=""r8"">10000000</Frequency><Timestamp dt:dt=""r8"">7094437297712</Timestamp><Current dt:dt=""r8"">0</Current><DateUtc dt:dt=""string"">2023-10-26T19:56:39Z</DateUtc></FrequencyChange></FrequencyChanges></Clock>\n";SeminarExperimentWS2324-0306-1;;;;60.033;1.0.0.48;1;Keyboard;Keyboard;Keyboard;-845970411;Full;3.0.3.214;3.0.3.214;10-26-2023;26.10.2023 19:56;21:56:40;3.0.3.214;1;2;2;1;Keyboard;Keyboard;CounterBalanceProc;CounterbalanceList;1;;Keyboard;;;;;;;;1;2;1;TrainProcFlank;PreList;10;10;;TrainFlankerProc80;TrainListFlankerPre80;;;;;;;;;;;;1;1;5;;;;;;;1;1;white;-1;a;;S;;;;;;;3;5;41;;TrialProc;FlankerList80;50%;;;;;;;;;;H;1;a;Keyboard;a;520;91
SeminarExperimentWS2324;306;1;"<?xml version=""1.0""?>\n<Clock xmlns:dt=""urn:schemas-microsoft-com:datatypes""><Description dt:dt=""string"">E-Prime Primary Realtime Clock</Description><StartTime><Timestamp dt:dt=""int"">0</Timestamp><DateUtc dt:dt=""string"">2023-10-26T19:56:39Z</DateUtc></StartTime><FrequencyChanges><FrequencyChange><Frequency dt:dt=""r8"">10000000</Frequency><Timestamp dt:dt=""r8"">7094437297712</Timestamp><Current dt:dt=""r8"">0</Current><DateUtc dt:dt=""string"">2023-10-26T19:56:39Z</DateUtc></FrequencyChange></FrequencyChanges></Clock>\n";SeminarExperimentWS2324-0306-1;;;;60.033;1.0.0.48;1;Keyboard;Keyboard;Keyboard;-845970411;Full;3.0.3.214;3.0.3.214;10-26-2023;26.10.2023 19:56;21:56:40;3.0.3.214;1;2;2;1;Keyboard;Keyboard;CounterBalanceProc;CounterbalanceList;1;;Keyboard;;;;;;;;1;2;1;TrainProcFlank;PreList;10;10;;TrainFlankerProc80;TrainListFlankerPre80;;;;;;;;;;;;1;1;5;;;;;;;2;2;white;-1;{BACKSLASH};;H;;;;;;;8;5;42;;TrialProc;FlankerList80;50%;;;;;;;;;;S;1;{BACKSLASH};Keyboard;{BACKSLASH};517;92
SeminarExperimentWS2324;306;1;"<?xml version=""1.0""?>\n<Clock xmlns:dt=""urn:schemas-microsoft-com:datatypes""><Description dt:dt=""string"">E-Prime Primary Realtime Clock</Description><StartTime><Timestamp dt:dt=""int"">0</Timestamp><DateUtc dt:dt=""string"">2023-10-26T19:56:39Z</DateUtc></StartTime><FrequencyChanges><FrequencyChange><Frequency dt:dt=""r8"">10000000</Frequency><Timestamp dt:dt=""r8"">7094437297712</Timestamp><Current dt:dt=""r8"">0</Current><DateUtc dt:dt=""string"">2023-10-26T19:56:39Z</DateUtc></FrequencyChange></FrequencyChanges></Clock>\n";SeminarExperimentWS2324-0306-1;;;;60.033;1.0.0.48;1;Keyboard;Keyboard;Keyboard;-845970411;Full;3.0.3.214;3.0.3.214;10-26-2023;26.10.2023 19:56;21:56:40;3.0.3.214;1;2;2;1;Keyboard;Keyboard;CounterBalanceProc;CounterbalanceList;1;;Keyboard;;;;;;;;1;2;1;TrainProcFlank;PreList;10;10;;TrainFlankerProc80;TrainListFlankerPre80;;;;;;;;;;;;1;1;5;;;;;;;3;3;white;-1;{BACKSLASH};;H;;;;;;;4;5;43;;TrialProc;FlankerList80;50%;;;;;;;;;;S;1;{BACKSLASH};Keyboard;{BACKSLASH};459;93
SeminarExperimentWS2324;306;1;"<?xml version=""1.0""?>\n<Clock xmlns:dt=""urn:schemas-microsoft-com:datatypes""><Description dt:dt=""string"">E-Prime Primary Realtime Clock</Description><StartTime><Timestamp dt:dt=""int"">0</Timestamp><DateUtc dt:dt=""string"">2023-10-26T19:56:39Z</DateUtc></StartTime><FrequencyChanges><FrequencyChange><Frequency dt:dt=""r8"">10000000</Frequency><Timestamp dt:dt=""r8"">7094437297712</Timestamp><Current dt:dt=""r8"">0</Current><DateUtc dt:dt=""string"">2023-10-26T19:56:39Z</DateUtc></FrequencyChange></FrequencyChanges></Clock>\n";SeminarExperimentWS2324-0306-1;;;;60.033;1.0.0.48;1;Keyboard;Keyboard;Keyboard;-845970411;Full;3.0.3.214;3.0.3.214;10-26-2023;26.10.2023 19:56;21:56:40;3.0.3.214;1;2;2;1;Keyboard;Keyboard;CounterBalanceProc;CounterbalanceList;1;;Keyboard;;;;;;;;1;2;1;TrainProcFlank;PreList;10;10;;TrainFlankerProc80;TrainListFlankerPre80;;;;;;;;;;;;1;1;5;;;;;;;4;4;white;-1;{BACKSLASH};;H;;;;;;;6;5;44;;TrialProc;FlankerList80;50%;;;;;;;;;;S;1;{BACKSLASH};Keyboard;{BACKSLASH};496;94
SeminarExperimentWS2324;306;1;"<?xml version=""1.0""?>\n<Clock xmlns:dt=""urn:schemas-microsoft-com:datatypes""><Description dt:dt=""string"">E-Prime Primary Realtime Clock</Description><StartTime><Timestamp dt:dt=""int"">0</Timestamp><DateUtc dt:dt=""string"">2023-10-26T19:56:39Z</DateUtc></StartTime><FrequencyChanges><FrequencyChange><Frequency dt:dt=""r8"">10000000</Frequency><Timestamp dt:dt=""r8"">7094437297712</Timestamp><Current dt:dt=""r8"">0</Current><DateUtc dt:dt=""string"">2023-10-26T19:56:39Z</DateUtc></FrequencyChange></FrequencyChanges></Clock>\n";SeminarExperimentWS2324-0306-1;;;;60.033;1.0.0.48;1;Keyboard;Keyboard;Keyboard;-845970411;Full;3.0.3.214;3.0.3.214;10-26-2023;26.10.2023 19:56;21:56:40;3.0.3.214;1;2;2;1;Keyboard;Keyboard;CounterBalanceProc;CounterbalanceList;1;;Keyboard;;;;;;;;1;2;1;TrainProcFlank;PreList;10;10;;TrainFlankerProc80;TrainListFlankerPre80;;;;;;;;;;;;1;1;5;;;;;;;5;5;white;-1;{BACKSLASH};;H;;;;;;;10;5;45;;TrialProc;FlankerList80;50%;;;;;;;;;;S;1;{BACKSLASH};Keyboard;{BACKSLASH};409;95
SeminarExperimentWS2324;306;1;"<?xml version=""1.0""?>\n<Clock xmlns:dt=""urn:schemas-microsoft-com:datatypes""><Description dt:dt=""string"">E-Prime Primary Realtime Clock</Description><StartTime><Timestamp dt:dt=""int"">0</Timestamp><DateUtc dt:dt=""string"">2023-10-26T19:56:39Z</DateUtc></StartTime><FrequencyChanges><FrequencyChange><Frequency dt:dt=""r8"">10000000</Frequency><Timestamp dt:dt=""r8"">7094437297712</Timestamp><Current dt:dt=""r8"">0</Current><DateUtc dt:dt=""string"">2023-10-26T19:56:39Z</DateUtc></FrequencyChange></FrequencyChanges></Clock>\n";SeminarExperimentWS2324-0306-1;;;;60.033;1.0.0.48;1;Keyboard;Keyboard;Keyboard;-845970411;Full;3.0.3.214;3.0.3.214;10-26-2023;26.10.2023 19:56;21:56:40;3.0.3.214;1;2;2;1;Keyboard;Keyboard;CounterBalanceProc;CounterbalanceList;1;;Keyboard;;;;;;;;1;2;1;TrainProcFlank;PreList;10;10;;TrainFlankerProc80;TrainListFlankerPre80;;;;;;;;;;;;1;1;5;;;;;;;6;6;white;-1;a;;S;;;;;;;9;5;46;;TrialProc;FlankerList80;50%;;;;;;;;;;H;1;a;Keyboard;a;384;96
